
time;gFx;gFy;gFz;ax;ay;az;wx;wy;wz;
0,037052;0,0000;0,0000;0,0000;0,0000;0,0000;0,0000;0,0858;0,0279;−0,0376;
0,097072;0,0000;0,0000;0,0000;0,0000;0,0000;0,0000;−0,0089;−0,1871;0,0082;
0,097695;0,0000;0,0000;0,0000;−6,7458;3,0130;−4,2359;−0,0089;−0,1871;0,0082;
0,148823;0,0000;0,0000;0,0000;−6,7458;3,0130;−4,2359;0,2569;0,0884;−0,0621;
0,149534;0,0000;0,0000;0,0000;−6,7754;2,9833;−4,2238;0,2569;0,0884;−0,0621;
0,211384;0,0000;0,0000;0,0000;−6,7754;2,9833;−4,2238;0,0266;0,0194;−0,0260;
0,212211;0,0000;0,0000;0,0000;−6,7186;2,8904;−4,1845;0,0266;0,0194;−0,0260;
0,269564;−0,0120;0,3454;0,9220;−6,7186;2,8904;−4,1845;0,0266;0,0194;−0,0260;
0,270439;−0,0120;0,3454;0,9220;−6,7186;2,8904;−4,1845;−0,0021;−0,0350;0,0387;
0,270962;−0,0120;0,3454;0,9220;−0,0832;−0,4090;−0,0068;−0,0021;−0,0350;0,0387;
0,336956;−0,0086;0,3359;0,9558;−0,0832;−0,4090;−0,0068;−0,0021;−0,0350;0,0387;
0,337781;−0,0086;0,3359;0,9558;−0,0832;−0,4090;−0,0068;0,0822;0,0945;0,0271;
0,338379;−0,0086;0,3359;0,9558;−0,0228;−0,5182;0,3304;0,0822;0,0945;0,0271;
0,389100;0,0005;0,3181;0,9509;−0,0228;−0,5182;0,3304;0,0822;0,0945;0,0271;
0,389888;0,0005;0,3181;0,9509;−0,0228;−0,5182;0,3304;−0,0168;0,0005;0,0021;
0,390440;0,0005;0,3181;0,9509;0,0708;−0,6607;0,2690;−0,0168;0,0005;0,0021;
0,453007;−0,0213;0,3359;0,9558;0,0708;−0,6607;0,2690;−0,0168;0,0005;0,0021;
0,453777;−0,0213;0,3359;0,9558;0,0708;−0,6607;0,2690;0,0394;0,0310;−0,0040;
0,454425;−0,0213;0,3359;0,9558;−0,1223;−0,4768;0,3133;0,0394;0,0310;−0,0040;
0,509242;−0,0161;0,3288;0,9575;−0,1223;−0,4768;0,3133;0,0394;0,0310;−0,0040;
0,510136;−0,0161;0,3288;0,9575;−0,1223;−0,4768;0,3133;0,0125;−0,0472;−0,0047;
0,510720;−0,0161;0,3288;0,9575;−0,0657;−0,4138;0,2761;0,0125;−0,0472;−0,0047;
0,579769;−0,0161;0,3288;0,9575;−0,0657;−0,4138;0,2761;−0,0089;−0,0893;−0,0340;
0,580954;−0,0161;0,3288;0,9575;−0,0627;−0,3240;0,2408;−0,0089;−0,0893;−0,0340;
0,581960;−0,0120;0,3393;0,9509;−0,0627;−0,3240;0,2408;−0,0089;−0,0893;−0,0340;
0,630447;−0,0227;0,3564;0,9396;−0,0627;−0,3240;0,2408;−0,0089;−0,0893;−0,0340;
0,631355;−0,0227;0,3564;0,9396;−0,0627;−0,3240;0,2408;0,0510;0,0243;−0,0040;
0,631917;−0,0227;0,3564;0,9396;−0,1301;−0,0205;0,0533;0,0510;0,0243;−0,0040;
0,696860;−0,0308;0,3518;0,9843;−0,1301;−0,0205;0,0533;0,0510;0,0243;−0,0040;
0,697740;−0,0308;0,3518;0,9843;−0,1301;−0,0205;0,0533;0,1097;−0,0050;0,0069;
0,698455;−0,0308;0,3518;0,9843;−0,1724;−0,0844;0,4990;0,1097;−0,0050;0,0069;
0,752154;−0,0137;0,3699;0,9313;−0,1724;−0,0844;0,4990;0,1097;−0,0050;0,0069;
0,753052;−0,0137;0,3699;0,9313;−0,1724;−0,0844;0,4990;0,1078;0,0273;0,0088;
0,753652;−0,0137;0,3699;0,9313;−0,0027;0,0755;−0,0139;0,1078;0,0273;0,0088;
0,813338;−0,0279;0,3799;0,9555;−0,0027;0,0755;−0,0139;0,1078;0,0273;0,0088;
0,814420;−0,0279;0,3799;0,9555;−0,0027;0,0755;−0,0139;0,1378;−0,0527;−0,0279;
0,814991;−0,0279;0,3799;0,9555;−0,1196;0,1361;0,2382;0,1378;−0,0527;−0,0279;
0,870907;−0,0247;0,3762;0,9716;−0,1196;0,1361;0,2382;0,1378;−0,0527;−0,0279;
0,871811;−0,0247;0,3762;0,9716;−0,1196;0,1361;0,2382;0,2227;−0,3141;0,1444;
0,872402;−0,0247;0,3762;0,9716;−0,1673;0,0530;0,4139;0,2227;−0,3141;0,1444;
0,937851;0,0252;0,3699;1,0290;−0,1673;0,0530;0,4139;0,2227;−0,3141;0,1444;
0,938738;0,0252;0,3699;1,0290;−0,1673;0,0530;0,4139;0,6338;−0,6232;0,1652;
0,939265;0,0252;0,3699;1,0290;0,1025;−0,1806;1,0476;0,6338;−0,6232;0,1652;
0,989500;0,0677;0,4534;0,9218;0,1025;−0,1806;1,0476;0,6338;−0,6232;0,1652;
0,990505;0,0677;0,4534;0,9218;0,1025;−0,1806;1,0476;0,5397;−1,1333;0,1365;
0,991089;0,0677;0,4534;0,9218;0,0172;0,2883;0,1744;0,5397;−1,1333;0,1365;
1,053404;0,1444;0,4314;0,8820;0,0172;0,2883;0,1744;0,5397;−1,1333;0,1365;
1,054278;0,1444;0,4314;0,8820;0,0172;0,2883;0,1744;0,4255;−0,8383;0,2415;
1,054880;0,1444;0,4314;0,8820;0,1759;−0,1406;−0,0485;0,4255;−0,8383;0,2415;
1,110518;0,2133;0,4698;0,7740;0,1759;−0,1406;−0,0485;0,4255;−0,8383;0,2415;
1,111476;0,2133;0,4698;0,7740;0,1759;−0,1406;−0,0485;0,5293;−0,6666;−0,0059;
1,112006;0,2133;0,4698;0,7740;0,4144;−0,0494;−0,8829;0,5293;−0,6666;−0,0059;
1,180854;0,2057;0,4889;0,7207;0,4144;−0,0494;−0,8829;0,5293;−0,6666;−0,0059;
1,182159;0,2057;0,4889;0,7207;0,4144;−0,0494;−0,8829;−0,0816;0,2259;0,0216;
1,183122;0,2057;0,4889;0,7207;0,1652;−0,0132;−1,2835;−0,0816;0,2259;0,0216;
1,230875;0,1603;0,4693;0,8018;0,1652;−0,0132;−1,2835;−0,0816;0,2259;0,0216;
1,231679;0,1603;0,4693;0,8018;0,1652;−0,0132;−1,2835;−0,7016;0,8911;0,1377;
1,232260;0,1603;0,4693;0,8018;−0,0260;−0,0279;−0,6396;−0,7016;0,8911;0,1377;
1,297083;0,0410;0,2226;0,8509;−0,0260;−0,0279;−0,6396;−0,7016;0,8911;0,1377;
1,297986;0,0410;0,2226;0,8509;−0,0260;−0,0279;−0,6396;−0,5464;0,8654;0,0308;
1,298661;0,0410;0,2226;0,8509;−0,7026;−2,0901;−0,4189;−0,5464;0,8654;0,0308;
1,349946;0,0410;0,2226;0,8509;−0,3544;−1,8769;−0,5562;−0,5464;0,8654;0,0308;
1,350761;0,0679;0,3169;0,8886;−0,3544;−1,8769;−0,5562;−0,5464;0,8654;0,0308;
1,351254;0,0679;0,3169;0,8886;−0,3544;−1,8769;−0,5562;−0,1310;−0,4699;−0,4622;
1,412050;0,0090;0,3992;0,9074;−0,3544;−1,8769;−0,5562;−0,1310;−0,4699;−0,4622;
1,413305;0,0090;0,3992;0,9074;−0,3544;−1,8769;−0,5562;0,0651;−0,1895;−0,6424;
1,414389;0,0090;0,3992;0,9074;−0,8020;−0,1551;0,0135;0,0651;−0,1895;−0,6424;
1,470441;−0,0144;0,4420;0,9042;−0,8020;−0,1551;0,0135;0,0651;−0,1895;−0,6424;
1,471295;−0,0144;0,4420;0,9042;−0,8020;−0,1551;0,0135;−0,0027;−0,1761;−0,0199;
1,471876;−0,0144;0,4420;0,9042;−0,9796;0,1979;0,0078;−0,0027;−0,1761;−0,0199;
1,539291;0,0491;0,3572;0,9238;−0,9796;0,1979;0,0078;−0,0027;−0,1761;−0,0199;
1,540827;0,0491;0,3572;0,9238;−0,9796;0,1979;0,0078;−0,0266;−0,1981;−0,1855;
1,541666;0,0491;0,3572;0,9238;−0,4066;−0,6250;0,2005;−0,0266;−0,1981;−0,1855;
1,590396;0,0288;0,3371;0,9296;−0,4066;−0,6250;0,2005;−0,0266;−0,1981;−0,1855;
1,591294;0,0288;0,3371;0,9296;−0,4066;−0,6250;0,2005;0,1994;−0,3300;−0,7072;
1,591848;0,0288;0,3371;0,9296;−0,6345;−0,8389;0,2691;0,1994;−0,3300;−0,7072;
1,654276;−0,0735;0,4229;1,0063;−0,6345;−0,8389;0,2691;0,1994;−0,3300;−0,7072;
1,655164;−0,0735;0,4229;1,0063;−0,6345;−0,8389;0,2691;0,3216;0,9699;−0,2521;
1,655769;−0,0735;0,4229;1,0063;−1,5176;−0,1928;1,1028;0,3216;0,9699;−0,2521;
1,711092;0,0848;0,4068;0,9721;−1,5176;−0,1928;1,1028;0,3216;0,9699;−0,2521;
1,712217;0,0848;0,4068;0,9721;−1,5176;−0,1928;1,1028;0,0168;0,6217;1,2452;
1,712776;0,0848;0,4068;0,9721;0,4026;−0,3671;0,7499;0,0168;0,6217;1,2452;
1,779511;0,1080;0,4173;0,9570;0,4026;−0,3671;0,7499;0,0168;0,6217;1,2452;
1,781230;0,1080;0,4173;0,9570;0,4026;−0,3671;0,7499;0,3735;0,6113;−0,3327;
1,781884;0,1080;0,4173;0,9570;0,6893;−0,2916;0,6124;0,3735;0,6113;−0,3327;
1,830200;0,1080;0,4173;0,9570;1,1996;−0,5718;0,7514;0,3735;0,6113;−0,3327;
1,831580;0,0071;0,5084;0,9418;1,1996;−0,5718;0,7514;0,3735;0,6113;−0,3327;
1,832209;0,0071;0,5084;0,9418;1,1996;−0,5718;0,7514;0,8158;0,8691;−0,2594;
1,900491;0,0899;0,7305;0,7051;1,1996;−0,5718;0,7514;0,8158;0,8691;−0,2594;
1,901367;0,0899;0,7305;0,7051;1,1996;−0,5718;0,7514;0,8512;1,0444;0,4095;
1,901953;0,0899;0,7305;0,7051;1,3405;2,0876;−1,4710;0,8512;1,0444;0,4095;
1,950636;0,0217;0,5453;0,8715;1,3405;2,0876;−1,4710;0,8512;1,0444;0,4095;
1,951496;0,0217;0,5453;0,8715;1,3405;2,0876;−1,4710;0,5965;1,0591;0,7351;
1,952107;0,0217;0,5453;0,8715;1,0813;−0,2057;0,5020;0,5965;1,0591;0,7351;
2,011694;0,0169;0,6186;0,7711;1,0813;−0,2057;0,5020;0,5965;1,0591;0,7351;
2,013550;0,0169;0,6186;0,7711;1,0813;−0,2057;0,5020;−0,1390;−0,8022;0,2892;
2,014259;0,0169;0,6186;0,7711;0,9430;0,4042;−0,4154;−0,1390;−0,8022;0,2892;
2,070581;0,0425;0,5888;0,7833;0,9430;0,4042;−0,4154;−0,1390;−0,8022;0,2892;
2,071814;0,0425;0,5888;0,7833;0,9430;0,4042;−0,4154;0,4377;−0,3703;0,3270;
2,072747;0,0425;0,5888;0,7833;0,7245;0,0580;−0,2891;0,4377;−0,3703;0,3270;
2,136956;0,0801;0,5744;0,7640;0,7245;0,0580;−0,2891;0,4377;−0,3703;0,3270;
2,138103;0,0801;0,5744;0,7640;0,7245;0,0580;−0,2891;0,2135;−0,6183;−0,1390;
2,138658;0,0801;0,5744;0,7640;0,7629;−0,3022;−0,3226;0,2135;−0,6183;−0,1390;
2,189604;0,0266;0,6694;0,7779;0,7629;−0,3022;−0,3226;0,2135;−0,6183;−0,1390;
2,190480;0,0266;0,6694;0,7779;0,7629;−0,3022;−0,3226;0,4016;−0,0081;−0,2191;
2,191037;0,0266;0,6694;0,7779;0,0910;0,5488;−0,1227;0,4016;−0,0081;−0,2191;
2,254272;0,0034;0,6506;0,7286;0,0910;0,5488;−0,1227;0,4016;−0,0081;−0,2191;
2,255131;0,0034;0,6506;0,7286;0,0910;0,5488;−0,1227;0,1726;0,1074;−0,1415;
2,255744;0,0034;0,6506;0,7286;−0,0494;0,1716;−0,4542;0,1726;0,1074;−0,1415;
2,309133;−0,0691;0,6181;0,7554;−0,0494;0,1716;−0,4542;0,1726;0,1074;−0,1415;
2,310077;−0,0691;0,6181;0,7554;−0,0494;0,1716;−0,4542;−0,2349;−0,0869;−0,0126;
2,310710;−0,0691;0,6181;0,7554;−0,7095;−0,1265;−0,2078;−0,2349;−0,0869;−0,0126;
2,382142;−0,1104;0,5935;0,8588;−0,7095;−0,1265;−0,2078;−0,2349;−0,0869;−0,0126;
2,383053;−0,1104;0,5935;0,8588;−0,7095;−0,1265;−0,2078;−0,3729;−0,7228;0,1927;
2,383677;−0,1104;0,5935;0,8588;−1,2308;−0,2396;0,7036;−0,3729;−0,7228;0,1927;
2,431525;−0,1261;0,5573;0,8233;−1,2308;−0,2396;0,7036;−0,3729;−0,7228;0,1927;
2,432779;−0,1261;0,5573;0,8233;−1,2308;−0,2396;0,7036;−0,7272;−1,6318;0,7339;
2,433692;−0,1261;0,5573;0,8233;−1,9962;−0,3564;0,2110;−0,7272;−1,6318;0,7339;
2,496499;−0,1832;0,3770;0,7610;−1,9962;−0,3564;0,2110;−0,7272;−1,6318;0,7339;
2,497325;−0,1832;0,3770;0,7610;−1,9962;−0,3564;0,2110;−1,1322;−0,0325;0,3484;
2,497850;−0,1832;0,3770;0,7610;−3,2681;−1,6654;−0,6212;−1,1322;−0,0325;0,3484;
2,548856;−0,4246;0,2741;1,1277;−3,2681;−1,6654;−0,6212;−1,1322;−0,0325;0,3484;
2,549706;−0,4246;0,2741;1,1277;−3,2681;−1,6654;−0,6212;−1,0803;1,2478;0,4700;
2,550387;−0,4246;0,2741;1,1277;−5,3819;−2,0092;2,5295;−1,0803;1,2478;0,4700;
2,615611;−0,5099;0,1639;1,0679;−5,3819;−2,0092;2,5295;−1,0803;1,2478;0,4700;
2,616844;−0,5099;0,1639;1,0679;−5,3819;−2,0092;2,5295;−0,1976;1,5343;1,3014;
2,617799;−0,5099;0,1639;1,0679;−5,6977;−2,6836;1,6748;−0,1976;1,5343;1,3014;
2,671209;−0,5785;0,1686;0,9633;−5,6977;−2,6836;1,6748;−0,1976;1,5343;1,3014;
2,675997;−0,5785;0,1686;0,9633;−5,6977;−2,6836;1,6748;−0,6668;2,3517;1,8133;
2,676649;−0,5785;0,1686;0,9633;−5,7105;−2,4853;0,5496;−0,6668;2,3517;1,8133;
2,740636;−0,3315;−0,0276;1,1307;−5,7105;−2,4853;0,5496;−0,6668;2,3517;1,8133;
2,741522;−0,3315;−0,0276;1,1307;−5,7105;−2,4853;0,5496;−1,3051;2,1825;2,8304;
2,742206;−0,3315;−0,0276;1,1307;−2,5162;−3,9201;2,0080;−1,3051;2,1825;2,8304;
2,789707;−0,3315;−0,0276;1,1307;−2,5162;−3,9201;2,0080;−0,9142;1,9797;2,8291;
2,790929;−0,3315;−0,0276;1,1307;−2,0160;−3,4796;1,8963;−0,9142;1,9797;2,8291;
2,791836;−0,1876;−0,1063;1,0835;−2,0160;−3,4796;1,8963;−0,9142;1,9797;2,8291;
2,857233;0,0149;−0,0533;1,1214;−2,0160;−3,4796;1,8963;−0,9142;1,9797;2,8291;
2,858656;0,0149;−0,0533;1,1214;−2,0160;−3,4796;1,8963;−0,9972;1,9076;2,8463;
2,859558;0,0149;−0,0533;1,1214;1,9612;−3,3838;1,7872;−0,9972;1,9076;2,8463;
2,909292;0,1620;0,0225;1,0188;1,9612;−3,3838;1,7872;−0,9972;1,9076;2,8463;
2,910194;0,1620;0,0225;1,0188;1,9612;−3,3838;1,7872;−1,1121;1,2992;2,3441;
2,911085;0,1620;0,0225;1,0188;3,8873;−2,4738;0,8396;−1,1121;1,2992;2,3441;
2,981217;0,2243;0,0208;1,2071;3,8873;−2,4738;0,8396;−1,1121;1,2992;2,3441;
2,982694;0,2243;0,0208;1,2071;3,8873;−2,4738;0,8396;−1,6637;0,6877;1,8707;
2,983597;0,2243;0,0208;1,2071;4,6755;−2,0262;2,6072;−1,6637;0,6877;1,8707;
3,028779;0,2731;0,0042;1,3176;4,6755;−2,0262;2,6072;−1,6637;0,6877;1,8707;
3,030219;0,2731;0,0042;1,3176;4,6755;−2,0262;2,6072;−0,8903;0,7231;1,4058;
3,031192;0,2731;0,0042;1,3176;5,3968;−1,6496;3,6432;−0,8903;0,7231;1,4058;
3,097495;0,1429;0,0691;1,1852;5,3968;−1,6496;3,6432;−0,8903;0,7231;1,4058;
3,098837;0,1429;0,0691;1,1852;5,3968;−1,6496;3,6432;−0,3540;−0,4375;1,2244;
3,100385;0,1429;0,0691;1,1852;4,1742;−0,8741;2,3372;−0,3540;−0,4375;1,2244;
3,150250;0,0987;0,1537;1,0176;4,1742;−0,8741;2,3372;−0,3540;−0,4375;1,2244;
3,151107;0,0987;0,1537;1,0176;4,1742;−0,8741;2,3372;−0,2593;−0,9500;1,0692;
3,151660;0,0987;0,1537;1,0176;3,1993;−0,0583;0,5519;−0,2593;−0,9500;1,0692;
3,211875;0,1554;0,0577;0,9064;3,1993;−0,0583;0,5519;−0,2593;−0,9500;1,0692;
3,212752;0,1554;0,0577;0,9064;3,1993;−0,0583;0,5519;−0,2746;−0,4827;0,3649;
3,213355;0,1554;0,0577;0,9064;3,2282;−0,9423;−0,6561;−0,2746;−0,4827;0,3649;
3,269331;−0,1165;0,0493;0,9057;3,2282;−0,9423;−0,6561;−0,2746;−0,4827;0,3649;
3,270289;−0,1165;0,0493;0,9057;3,2282;−0,9423;−0,6561;−0,6503;−0,0875;−0,3009;
3,270891;−0,1165;0,0493;0,9057;0,3085;−0,7923;−0,7389;−0,6503;−0,0875;−0,3009;
3,338446;−0,0826;0,0054;1,0938;0,3085;−0,7923;−0,7389;−0,6503;−0,0875;−0,3009;
3,340067;−0,0826;0,0054;1,0938;0,3085;−0,7923;−0,7389;−0,6527;−0,2366;−0,3101;
3,341038;−0,0826;0,0054;1,0938;0,5624;−0,7526;1,0423;−0,6527;−0,2366;−0,3101;
3,389796;−0,1351;0,0730;0,9990;0,5624;−0,7526;1,0423;−0,6527;−0,2366;−0,3101;
3,391580;−0,1351;0,0730;0,9990;0,5624;−0,7526;1,0423;−0,0877;−0,1675;−0,5416;
3,392561;−0,1351;0,0730;0,9990;−0,0806;0,1689;0,0781;−0,0877;−0,1675;−0,5416;
3,454138;−0,1837;0,1129;0,9404;−0,0806;0,1689;0,0781;−0,0877;−0,1675;−0,5416;
3,455927;−0,1837;0,1129;0,9404;−0,0806;0,1689;0,0781;−0,3528;0,1031;−0,5886;
3,456860;−0,1837;0,1129;0,9404;−0,5656;0,6663;−0,5031;−0,3528;0,1031;−0,5886;
3,510513;−0,1512;0,0049;1,1094;−0,5656;0,6663;−0,5031;−0,3528;0,1031;−0,5886;
3,512280;−0,1512;0,0049;1,1094;−0,5656;0,6663;−0,5031;−0,4578;0,6480;−0,5789;
3,513256;−0,1512;0,0049;1,1094;−0,0956;−0,1023;1,1654;−0,4578;0,6480;−0,5789;
3,581798;−0,1459;−0,0955;0,9501;−0,0956;−0,1023;1,1654;−0,4578;0,6480;−0,5789;
3,583525;−0,1459;−0,0955;0,9501;−0,0956;−0,1023;1,1654;−0,5825;−0,2714;−0,2429;
3,584457;−0,1459;−0,0955;0,9501;0,1702;−0,7926;−0,3629;−0,5825;−0,2714;−0,2429;
3,629928;−0,1459;−0,0955;0,9501;0,0826;−0,3721;−0,3616;−0,5825;−0,2714;−0,2429;
3,631701;−0,1339;−0,0608;0,9599;0,0826;−0,3721;−0,3616;−0,5825;−0,2714;−0,2429;
3,632664;−0,1339;−0,0608;0,9599;0,0826;−0,3721;−0,3616;−0,7535;0,1208;−0,3620;
3,697726;−0,0860;−0,0926;1,0339;0,0826;−0,3721;−0,3616;−0,7535;0,1208;−0,3620;
3,699486;−0,0860;−0,0926;1,0339;0,0826;−0,3721;−0,3616;0,1677;0,1739;−0,5581;
3,700454;−0,0860;−0,0926;1,0339;0,6502;−0,2060;0,4656;0,1677;0,1739;−0,5581;
3,748190;−0,1725;−0,1160;0,9729;0,6502;−0,2060;0,4656;0,1677;0,1739;−0,5581;
3,749857;−0,1725;−0,1160;0,9729;0,6502;−0,2060;0,4656;0,0669;−0,1773;−0,4891;
3,750852;−0,1725;−0,1160;0,9729;−0,2600;−0,4480;−0,1433;0,0669;−0,1773;−0,4891;
3,810511;−0,1319;−0,0799;0,9814;−0,2600;−0,4480;−0,1433;0,0669;−0,1773;−0,4891;
3,812314;−0,1319;−0,0799;0,9814;−0,2600;−0,4480;−0,1433;0,1573;0,0108;−0,2588;
3,813152;−0,1319;−0,0799;0,9814;0,0850;−0,1080;−0,0681;0,1573;0,0108;−0,2588;
3,867921;−0,1923;−0,1009;1,0090;0,0850;−0,1080;−0,0681;0,1573;0,0108;−0,2588;
3,869591;−0,1923;−0,1009;1,0090;0,0850;−0,1080;−0,0681;0,2587;0,3859;−0,2789;
3,870556;−0,1923;−0,1009;1,0090;−0,3321;−0,4096;0,2227;0,2587;0,3859;−0,2789;
3,936564;−0,1588;−0,0496;0,9919;−0,3321;−0,4096;0,2227;0,2587;0,3859;−0,2789;
3,938322;−0,1588;−0,0496;0,9919;−0,3321;−0,4096;0,2227;0,1494;0,0041;−0,0352;
3,939172;−0,1588;−0,0496;0,9919;0,0576;0,0269;0,0614;0,1494;0,0041;−0,0352;
3,989725;−0,2648;−0,0007;0,9389;0,0576;0,0269;0,0614;0,1494;0,0041;−0,0352;
3,991539;−0,2648;−0,0007;0,9389;0,0576;0,0269;0,0614;0,1799;−0,1425;−0,1317;
3,992283;−0,2648;−0,0007;0,9389;−0,9589;0,4213;−0,4584;0,1799;−0,1425;−0,1317;
4,054256;−0,0122;−0,1180;1,0430;−0,9589;0,4213;−0,4584;0,1799;−0,1425;−0,1317;
4,055909;−0,0122;−0,1180;1,0430;−0,9589;0,4213;−0,4584;0,6032;−2,3813;−0,1733;
4,056831;−0,0122;−0,1180;1,0430;0,8907;−0,9101;0,4698;0,6032;−2,3813;−0,1733;
4,110418;−0,0007;−0,0608;0,9550;0,8907;−0,9101;0,4698;0,6032;−2,3813;−0,1733;
4,111996;−0,0007;−0,0608;0,9550;0,8907;−0,9101;0,4698;0,0345;0,3206;−0,1977;
4,112939;−0,0007;−0,0608;0,9550;0,1682;−0,5771;−0,4458;0,0345;0,3206;−0,1977;
4,180435;0,0354;0,0391;1,0312;0,1682;−0,5771;−0,4458;0,0345;0,3206;−0,1977;
4,182185;0,0354;0,0391;1,0312;0,1682;−0,5771;−0,4458;0,0620;−0,2537;−0,0712;
4,183220;0,0354;0,0391;1,0312;0,4608;0,3489;0,3003;0,0620;−0,2537;−0,0712;
4,228363;−0,0049;0,0046;1,0083;0,4608;0,3489;0,3003;0,0620;−0,2537;−0,0712;
4,229864;−0,0049;0,0046;1,0083;0,4608;0,3489;0,3003;0,0003;0,0017;0,0063;
4,230911;−0,0049;0,0046;1,0083;0,0103;−0,0105;0,0749;0,0003;0,0017;0,0063;
4,297512;−0,0117;0,0086;1,0049;0,0103;−0,0105;0,0749;0,0003;0,0017;0,0063;
4,299415;−0,0117;0,0086;1,0049;0,0103;−0,0105;0,0749;−0,0058;−0,0044;0,0069;
4,300264;−0,0117;0,0086;1,0049;−0,0539;0,0283;0,0413;−0,0058;−0,0044;0,0069;
4,350840;−0,0110;0,0064;1,0075;−0,0539;0,0283;0,0413;−0,0058;−0,0044;0,0069;
4,352651;−0,0110;0,0064;1,0075;−0,0539;0,0283;0,0413;−0,0009;0,0005;0,0008;
4,353460;−0,0110;0,0064;1,0075;−0,0466;0,0077;0,0677;−0,0009;0,0005;0,0008;
4,413310;−0,0103;0,0056;1,0073;−0,0466;0,0077;0,0677;−0,0009;0,0005;0,0008;
4,415130;−0,0103;0,0056;1,0073;−0,0466;0,0077;0,0677;−0,0003;0,0005;0,0002;
4,416044;−0,0103;0,0056;1,0073;−0,0392;0,0004;0,0653;−0,0003;0,0005;0,0002;
4,470605;−0,0120;0,0056;1,0085;−0,0392;0,0004;0,0653;−0,0003;0,0005;0,0002;
4,472091;−0,0120;0,0056;1,0085;−0,0392;0,0004;0,0653;0,0003;−0,0002;0,0002;
4,472918;−0,0120;0,0056;1,0085;−0,0540;0,0001;0,0773;0,0003;−0,0002;0,0002;
4,539386;−0,0107;0,0073;1,0080;−0,0540;0,0001;0,0773;0,0003;−0,0002;0,0002;
4,541206;−0,0107;0,0073;1,0080;−0,0540;0,0001;0,0773;−0,0003;−0,0008;0,0002;
4,542135;−0,0107;0,0073;1,0080;−0,0406;0,0167;0,0725;−0,0003;−0,0008;0,0002;
4,589630;−0,0083;0,0076;1,0083;−0,0406;0,0167;0,0725;−0,0003;−0,0008;0,0002;
4,591453;−0,0083;0,0076;1,0083;−0,0406;0,0167;0,0725;0,0003;−0,0002;−0,0010;
4,592308;−0,0083;0,0076;1,0083;−0,0135;0,0185;0,0749;0,0003;−0,0002;−0,0010;
4,652245;−0,0105;0,0064;1,0088;−0,0135;0,0185;0,0749;0,0003;−0,0002;−0,0010;
4,653546;−0,0105;0,0064;1,0088;−0,0135;0,0185;0,0749;0,0009;−0,0002;0,0008;
4,654338;−0,0105;0,0064;1,0088;−0,0326;0,0061;0,0797;0,0009;−0,0002;0,0008;
4,710746;−0,0107;0,0086;1,0075;−0,0326;0,0061;0,0797;0,0009;−0,0002;0,0008;
4,712071;−0,0107;0,0086;1,0075;−0,0326;0,0061;0,0797;−0,0003;0,0005;0,0002;
4,712840;−0,0107;0,0086;1,0075;−0,0330;0,0274;0,0678;−0,0003;0,0005;0,0002;
4,778378;−0,0115;0,0076;1,0073;−0,0330;0,0274;0,0678;−0,0003;0,0005;0,0002;
4,779137;−0,0115;0,0076;1,0073;−0,0330;0,0274;0,0678;−0,0009;−0,0008;−0,0004;
4,779440;−0,0115;0,0076;1,0073;−0,0383;0,0176;0,0654;−0,0009;−0,0008;−0,0004;
4,831701;−0,0110;0,0051;1,0073;−0,0383;0,0176;0,0654;−0,0009;−0,0008;−0,0004;
4,833191;−0,0110;0,0051;1,0073;−0,0383;0,0176;0,0654;0,0009;−0,0002;0,0002;
4,833777;−0,0110;0,0051;1,0073;−0,0314;−0,0067;0,0654;0,0009;−0,0002;0,0002;
4,898446;−0,0098;0,0068;1,0063;−0,0314;−0,0067;0,0654;0,0009;−0,0002;0,0002;
4,900023;−0,0098;0,0068;1,0063;−0,0314;−0,0067;0,0654;−0,0003;−0,0002;−0,0004;
4,900693;−0,0098;0,0068;1,0063;−0,0177;0,0096;0,0558;−0,0003;−0,0002;−0,0004;
4,951622;−0,0125;0,0051;1,0073;−0,0177;0,0096;0,0558;−0,0003;−0,0002;−0,0004;
4,953060;−0,0125;0,0051;1,0073;−0,0177;0,0096;0,0558;−0,0003;0,0005;−0,0004;
4,953722;−0,0125;0,0051;1,0073;−0,0430;−0,0073;0,0654;−0,0003;0,0005;−0,0004;
5,012816;−0,0107;0,0064;1,0068;−0,0430;−0,0073;0,0654;−0,0003;0,0005;−0,0004;
5,014432;−0,0107;0,0064;1,0068;−0,0430;−0,0073;0,0654;0,0003;−0,0002;0,0008;
5,015149;−0,0107;0,0064;1,0068;−0,0248;0,0047;0,0607;0,0003;−0,0002;0,0008;
5,069848;−0,0120;0,0051;1,0056;−0,0248;0,0047;0,0607;0,0003;−0,0002;0,0008;
5,071363;−0,0120;0,0051;1,0056;−0,0248;0,0047;0,0607;−0,0003;−0,0002;−0,0004;
5,072056;−0,0120;0,0051;1,0056;−0,0354;−0,0077;0,0487;−0,0003;−0,0002;−0,0004;
5,138580;−0,0112;0,0064;1,0073;−0,0354;−0,0077;0,0487;−0,0003;−0,0002;−0,0004;
5,140023;−0,0112;0,0064;1,0073;−0,0354;−0,0077;0,0487;−0,0009;0,0005;0,0002;
5,140707;−0,0112;0,0064;1,0073;−0,0270;0,0039;0,0655;−0,0009;0,0005;0,0002;
5,188622;−0,0090;0,0066;1,0073;−0,0270;0,0039;0,0655;−0,0009;0,0005;0,0002;
5,190320;−0,0090;0,0066;1,0073;−0,0270;0,0039;0,0655;−0,0003;−0,0002;0,0002;
5,191053;−0,0090;0,0066;1,0073;−0,0045;0,0062;0,0655;−0,0003;−0,0002;0,0002;
5,254793;−0,0110;0,0088;1,0073;−0,0045;0,0062;0,0655;−0,0003;−0,0002;0,0002;
5,255993;−0,0110;0,0088;1,0073;−0,0045;0,0062;0,0655;−0,0009;−0,0002;0,0008;
5,256670;−0,0110;0,0088;1,0073;−0,0229;0,0274;0,0655;−0,0009;−0,0002;0,0008;
5,308515;−0,0117;0,0061;1,0071;−0,0229;0,0274;0,0655;−0,0009;−0,0002;0,0008;
5,309948;−0,0117;0,0061;1,0071;−0,0229;0,0274;0,0655;−0,0021;−0,0002;0,0002;
5,310759;−0,0117;0,0061;1,0071;−0,0296;0,0010;0,0631;−0,0021;−0,0002;0,0002;
5,380297;−0,0098;0,0061;1,0078;−0,0296;0,0010;0,0631;−0,0021;−0,0002;0,0002;
5,381866;−0,0098;0,0061;1,0078;−0,0296;0,0010;0,0631;−0,0003;−0,0002;0,0002;
5,382832;−0,0098;0,0061;1,0078;−0,0099;0,0006;0,0703;−0,0003;−0,0002;0,0002;
5,429870;−0,0078;0,0044;1,0071;−0,0099;0,0006;0,0703;−0,0003;−0,0002;0,0002;
5,431501;−0,0078;0,0044;1,0071;−0,0099;0,0006;0,0703;−0,0003;−0,0008;−0,0010;
5,432146;−0,0078;0,0044;1,0071;0,0096;−0,0162;0,0631;−0,0003;−0,0008;−0,0010;
5,497726;−0,0112;0,0071;1,0075;0,0096;−0,0162;0,0631;−0,0003;−0,0008;−0,0010;
5,499215;−0,0112;0,0071;1,0075;0,0096;−0,0162;0,0631;−0,0009;−0,0002;−0,0010;
5,499955;−0,0112;0,0071;1,0075;−0,0239;0,0104;0,0679;−0,0009;−0,0002;−0,0010;
5,549250;−0,0110;0,0073;1,0073;−0,0239;0,0104;0,0679;−0,0009;−0,0002;−0,0010;
5,550747;−0,0110;0,0073;1,0073;−0,0239;0,0104;0,0679;0,0003;−0,0008;−0,0016;
5,551664;−0,0110;0,0073;1,0073;−0,0210;0,0130;0,0655;0,0003;−0,0008;−0,0016;
5,612775;−0,0112;0,0051;1,0071;−0,0210;0,0130;0,0655;0,0003;−0,0008;−0,0016;
5,614172;−0,0112;0,0051;1,0071;−0,0210;0,0130;0,0655;0,0015;0,0011;0,0008;
5,615183;−0,0112;0,0051;1,0071;−0,0225;−0,0087;0,0631;0,0015;0,0011;0,0008;
5,670423;−0,0112;0,0071;1,0066;−0,0225;−0,0087;0,0631;0,0015;0,0011;0,0008;
5,671864;−0,0112;0,0071;1,0066;−0,0225;−0,0087;0,0631;0,0009;−0,0002;0,0002;
5,672559;−0,0112;0,0071;1,0066;−0,0219;0,0100;0,0583;0,0009;−0,0002;0,0002;
5,739501;−0,0125;0,0083;1,0075;−0,0219;0,0100;0,0583;0,0009;−0,0002;0,0002;
5,740924;−0,0125;0,0083;1,0075;−0,0219;0,0100;0,0583;0,0003;−0,0002;−0,0004;
5,741622;−0,0125;0,0083;1,0075;−0,0332;0,0217;0,0679;0,0003;−0,0002;−0,0004;
5,790334;−0,0098;0,0071;1,0066;−0,0332;0,0217;0,0679;0,0003;−0,0002;−0,0004;
5,791671;−0,0098;0,0071;1,0066;−0,0332;0,0217;0,0679;0,0003;0,0005;0,0002;
5,792396;−0,0098;0,0071;1,0066;−0,0059;0,0096;0,0584;0,0003;0,0005;0,0002;
5,855690;−0,0125;0,0088;1,0080;−0,0059;0,0096;0,0584;0,0003;0,0005;0,0002;
5,857087;−0,0125;0,0088;1,0080;−0,0059;0,0096;0,0584;−0,0015;−0,0008;−0,0004;
5,857959;−0,0125;0,0088;1,0080;−0,0315;0,0262;0,0727;−0,0015;−0,0008;−0,0004;
5,910572;−0,0105;0,0054;1,0063;−0,0315;0,0262;0,0727;−0,0015;−0,0008;−0,0004;
5,911829;−0,0105;0,0054;1,0063;−0,0315;0,0262;0,0727;0,0009;−0,0008;0,0002;
5,912544;−0,0105;0,0054;1,0063;−0,0120;−0,0074;0,0560;0,0009;−0,0008;0,0002;
5,980757;−0,0105;0,0059;1,0075;−0,0120;−0,0074;0,0560;0,0009;−0,0008;0,0002;
5,982347;−0,0105;0,0059;1,0075;−0,0120;−0,0074;0,0560;0,0003;0,0005;0,0008;
5,983076;−0,0105;0,0059;1,0075;−0,0118;−0,0026;0,0679;0,0003;0,0005;0,0008;
6,029675;−0,0117;0,0064;1,0054;−0,0118;−0,0026;0,0679;0,0003;0,0005;0,0008;
6,031084;−0,0117;0,0064;1,0054;−0,0118;−0,0026;0,0679;−0,0003;0,0005;−0,0010;
6,031713;−0,0117;0,0064;1,0054;−0,0236;0,0023;0,0464;−0,0003;0,0005;−0,0010;
6,098594;−0,0107;0,0076;1,0071;−0,0236;0,0023;0,0464;−0,0003;0,0005;−0,0010;
6,099899;−0,0107;0,0076;1,0071;−0,0236;0,0023;0,0464;0,0003;−0,0008;−0,0004;
6,100882;−0,0107;0,0076;1,0071;−0,0136;0,0143;0,0632;0,0003;−0,0008;−0,0004;
6,147487;−0,0107;0,0061;1,0083;−0,0136;0,0143;0,0632;0,0003;−0,0008;−0,0004;
6,148748;−0,0107;0,0061;1,0083;−0,0136;0,0143;0,0632;−0,0003;−0,0002;0,0008;
6,149440;−0,0107;0,0061;1,0083;−0,0134;−0,0001;0,0751;−0,0003;−0,0002;0,0008;
6,210976;−0,0105;0,0071;1,0088;−0,0134;−0,0001;0,0751;−0,0003;−0,0002;0,0008;
6,212280;−0,0105;0,0071;1,0088;−0,0134;−0,0001;0,0751;0,0003;−0,0008;−0,0004;
6,212979;−0,0105;0,0071;1,0088;−0,0105;0,0093;0,0799;0,0003;−0,0008;−0,0004;
6,268377;−0,0105;0,0071;1,0088;−0,0104;0,0094;0,0799;0,0003;−0,0008;−0,0004;
6,270440;−0,0100;0,0073;1,0073;−0,0104;0,0094;0,0799;0,0003;−0,0008;−0,0004;
6,271283;−0,0100;0,0073;1,0073;−0,0104;0,0094;0,0799;−0,0003;−0,0008;−0,0004;
6,337953;−0,0107;0,0066;1,0085;−0,0104;0,0094;0,0799;−0,0003;−0,0008;−0,0004;
6,339682;−0,0107;0,0066;1,0085;−0,0104;0,0094;0,0799;−0,0003;−0,0008;0,0002;
6,340397;−0,0107;0,0066;1,0085;−0,0127;0,0046;0,0775;−0,0003;−0,0008;0,0002;
6,389022;−0,0122;0,0076;1,0075;−0,0127;0,0046;0,0775;−0,0003;−0,0008;0,0002;
6,389347;−0,0122;0,0076;1,0075;−0,0127;0,0046;0,0775;0,0003;0,0005;0,0002;
6,389491;−0,0122;0,0076;1,0075;−0,0266;0,0140;0,0680;0,0003;0,0005;0,0002;
6,453714;−0,0129;0,0076;1,0088;−0,0266;0,0140;0,0680;0,0003;0,0005;0,0002;
6,455397;−0,0129;0,0076;1,0088;−0,0266;0,0140;0,0680;−0,0015;−0,0008;−0,0004;
6,456127;−0,0129;0,0076;1,0088;−0,0336;0,0137;0,0799;−0,0015;−0,0008;−0,0004;
6,508103;−0,0098;0,0042;1,0073;−0,0336;0,0137;0,0799;−0,0015;−0,0008;−0,0004;
6,508482;−0,0098;0,0042;1,0073;−0,0336;0,0137;0,0799;−0,0003;0,0005;−0,0004;
6,508636;−0,0098;0,0042;1,0073;−0,0023;−0,0200;0,0656;−0,0003;0,0005;−0,0004;
6,578810;−0,0107;0,0095;1,0078;−0,0023;−0,0200;0,0656;−0,0003;0,0005;−0,0004;
6,580277;−0,0107;0,0095;1,0078;−0,0023;−0,0200;0,0656;0,0009;0,0005;−0,0010;
6,581040;−0,0107;0,0095;1,0078;−0,0117;0,0327;0,0704;0,0009;0,0005;−0,0010;
6,628802;−0,0105;0,0061;1,0085;−0,0117;0,0327;0,0704;0,0009;0,0005;−0,0010;
6,630134;−0,0105;0,0061;1,0085;−0,0117;0,0327;0,0704;−0,0003;−0,0002;0,0002;
6,630840;−0,0105;0,0061;1,0085;−0,0090;−0,0012;0,0776;−0,0003;−0,0002;0,0002;
6,697873;−0,0095;0,0061;1,0078;−0,0090;−0,0012;0,0776;−0,0003;−0,0002;0,0002;
6,699483;−0,0095;0,0061;1,0078;−0,0090;−0,0012;0,0776;−0,0003;0,0011;0,0002;
6,700222;−0,0095;0,0061;1,0078;0,0008;−0,0014;0,0704;−0,0003;0,0011;0,0002;
6,749403;−0,0098;0,0064;1,0078;0,0008;−0,0014;0,0704;−0,0003;0,0011;0,0002;
6,750705;−0,0098;0,0064;1,0078;0,0008;−0,0014;0,0704;−0,0003;−0,0002;0,0002;
6,751294;−0,0098;0,0064;1,0078;−0,0011;0,0008;0,0704;−0,0003;−0,0002;0,0002;
6,812092;−0,0117;0,0061;1,0075;−0,0011;0,0008;0,0704;−0,0003;−0,0002;0,0002;
6,813469;−0,0117;0,0061;1,0075;−0,0011;0,0008;0,0704;−0,0009;−0,0008;−0,0004;
6,814268;−0,0117;0,0061;1,0075;−0,0202;−0,0014;0,0680;−0,0009;−0,0008;−0,0004;
6,869811;−0,0098;0,0076;1,0075;−0,0202;−0,0014;0,0680;−0,0009;−0,0008;−0,0004;
6,871113;−0,0098;0,0076;1,0075;−0,0202;−0,0014;0,0680;−0,0003;−0,0002;0,0002;
6,871829;−0,0098;0,0076;1,0075;−0,0011;0,0130;0,0680;−0,0003;−0,0002;0,0002;
6,939099;−0,0107;0,0066;1,0080;−0,0011;0,0130;0,0680;−0,0003;−0,0002;0,0002;
6,940325;−0,0107;0,0066;1,0080;−0,0011;0,0130;0,0680;−0,0009;−0,0008;0,0008;
6,940991;−0,0107;0,0066;1,0080;−0,0107;0,0036;0,0728;−0,0009;−0,0008;0,0008;
6,992297;−0,0115;0,0059;1,0071;−0,0107;0,0036;0,0728;−0,0009;−0,0008;0,0008;
6,993592;−0,0115;0,0059;1,0071;−0,0107;0,0036;0,0728;0,0003;−0,0002;0,0002;
6,994394;−0,0115;0,0059;1,0071;−0,0180;−0,0036;0,0632;0,0003;−0,0002;0,0002;
7,054583;−0,0095;0,0059;1,0068;−0,0180;−0,0036;0,0632;0,0003;−0,0002;0,0002;
7,055905;−0,0095;0,0059;1,0068;−0,0180;−0,0036;0,0632;−0,0003;−0,0008;0,0002;
7,056577;−0,0095;0,0059;1,0068;0,0013;−0,0038;0,0608;−0,0003;−0,0008;0,0002;
7,111036;−0,0105;0,0068;1,0078;0,0013;−0,0038;0,0608;−0,0003;−0,0008;0,0002;
7,112892;−0,0105;0,0068;1,0078;0,0013;−0,0038;0,0608;−0,0015;0,0005;0,0008;
7,113659;−0,0105;0,0068;1,0078;−0,0085;0,0056;0,0704;−0,0015;0,0005;0,0008;
7,180431;−0,0110;0,0064;1,0075;−0,0085;0,0056;0,0704;−0,0015;0,0005;0,0008;
7,181671;−0,0110;0,0064;1,0075;−0,0085;0,0056;0,0704;0,0003;−0,0002;0,0008;
7,182395;−0,0110;0,0064;1,0075;−0,0134;0,0008;0,0680;0,0003;−0,0002;0,0008;
7,229957;−0,0122;0,0064;1,0066;−0,0134;0,0008;0,0680;0,0003;−0,0002;0,0008;
7,231413;−0,0122;0,0064;1,0066;−0,0134;0,0008;0,0680;0,0009;−0,0002;−0,0004;
7,232131;−0,0122;0,0064;1,0066;−0,0253;0,0006;0,0584;0,0009;−0,0002;−0,0004;
7,297794;−0,0120;0,0071;1,0066;−0,0253;0,0006;0,0584;0,0009;−0,0002;−0,0004;
7,299288;−0,0120;0,0071;1,0066;−0,0253;0,0006;0,0584;−0,0003;0,0005;−0,0004;
7,300024;−0,0120;0,0071;1,0066;−0,0229;0,0078;0,0584;−0,0003;0,0005;−0,0004;
7,351664;−0,0115;0,0056;1,0073;−0,0229;0,0078;0,0584;−0,0003;0,0005;−0,0004;
7,353045;−0,0115;0,0056;1,0073;−0,0229;0,0078;0,0584;−0,0003;−0,0008;−0,0004;
7,353739;−0,0115;0,0056;1,0073;−0,0178;−0,0065;0,0656;−0,0003;−0,0008;−0,0004;
7,413316;−0,0117;0,0071;1,0073;−0,0178;−0,0065;0,0656;−0,0003;−0,0008;−0,0004;
7,414958;−0,0117;0,0071;1,0073;−0,0178;−0,0065;0,0656;−0,0009;−0,0002;0,0002;
7,415661;−0,0117;0,0071;1,0073;−0,0200;0,0077;0,0656;−0,0009;−0,0002;0,0002;
7,467969;−0,0105;0,0056;1,0068;−0,0200;0,0077;0,0656;−0,0009;−0,0002;0,0002;
7,469254;−0,0105;0,0056;1,0068;−0,0200;0,0077;0,0656;0,0009;−0,0002;−0,0010;
7,469935;−0,0105;0,0056;1,0068;−0,0079;−0,0065;0,0608;0,0009;−0,0002;−0,0010;
7,539008;−0,0122;0,0083;1,0080;−0,0079;−0,0065;0,0608;0,0009;−0,0002;−0,0010;
7,540253;−0,0122;0,0083;1,0080;−0,0079;−0,0065;0,0608;−0,0003;0,0005;0,0002;
7,540972;−0,0122;0,0083;1,0080;−0,0248;0,0200;0,0728;−0,0003;0,0005;0,0002;
7,590777;−0,0115;0,0071;1,0073;−0,0248;0,0200;0,0728;−0,0003;0,0005;0,0002;
7,592042;−0,0115;0,0071;1,0073;−0,0248;0,0200;0,0728;−0,0009;−0,0002;0,0008;
7,592711;−0,0115;0,0071;1,0073;−0,0173;0,0080;0,0656;−0,0009;−0,0002;0,0008;
7,655035;−0,0125;0,0071;1,0075;−0,0173;0,0080;0,0656;−0,0009;−0,0002;0,0008;
7,656373;−0,0125;0,0071;1,0075;−0,0173;0,0080;0,0656;0,0003;0,0011;−0,0004;
7,657082;−0,0125;0,0071;1,0075;−0,0269;0,0082;0,0680;0,0003;0,0011;−0,0004;
7,711391;−0,0110;0,0066;1,0078;−0,0269;0,0082;0,0680;0,0003;0,0011;−0,0004;
7,712812;−0,0110;0,0066;1,0078;−0,0269;0,0082;0,0680;0,0003;0,0005;0,0008;
7,713524;−0,0110;0,0066;1,0078;−0,0123;0,0036;0,0704;0,0003;0,0005;0,0008;
7,778917;−0,0110;0,0066;1,0078;−0,0119;0,0034;0,0704;0,0003;0,0005;0,0008;
7,780395;−0,0110;0,0059;1,0068;−0,0119;0,0034;0,0704;0,0003;0,0005;0,0008;
7,781038;−0,0110;0,0059;1,0068;−0,0119;0,0034;0,0704;0,0003;0,0005;−0,0010;
7,829582;−0,0117;0,0071;1,0073;−0,0119;0,0034;0,0704;0,0003;0,0005;−0,0010;
7,830980;−0,0117;0,0071;1,0073;−0,0119;0,0034;0,0704;−0,0009;−0,0002;−0,0004;
7,831704;−0,0117;0,0071;1,0073;−0,0189;0,0080;0,0656;−0,0009;−0,0002;−0,0004;
7,897656;−0,0098;0,0071;1,0080;−0,0189;0,0080;0,0656;−0,0009;−0,0002;−0,0004;
7,899040;−0,0098;0,0071;1,0080;−0,0189;0,0080;0,0656;0,0003;0,0005;−0,0004;
7,899770;−0,0098;0,0071;1,0080;0,0005;0,0083;0,0728;0,0003;0,0005;−0,0004;
7,950418;−0,0112;0,0049;1,0066;0,0005;0,0083;0,0728;0,0003;0,0005;−0,0004;
7,951822;−0,0112;0,0049;1,0066;0,0005;0,0083;0,0728;−0,0003;−0,0008;0,0002;
7,952572;−0,0112;0,0049;1,0066;−0,0141;−0,0134;0,0584;−0,0003;−0,0008;0,0002;
8,012124;−0,0107;0,0061;1,0085;−0,0141;−0,0134;0,0584;−0,0003;−0,0008;0,0002;
8,013441;−0,0107;0,0061;1,0085;−0,0141;−0,0134;0,0584;−0,0009;−0,0008;0,0008;
8,014267;−0,0107;0,0061;1,0085;−0,0091;−0,0015;0,0776;−0,0009;−0,0008;0,0008;
8,069862;−0,0105;0,0061;1,0078;−0,0091;−0,0015;0,0776;−0,0009;−0,0008;0,0008;
8,071251;−0,0105;0,0061;1,0078;−0,0091;−0,0015;0,0776;−0,0015;−0,0002;−0,0010;
8,071938;−0,0105;0,0061;1,0078;−0,0068;−0,0011;0,0704;−0,0015;−0,0002;−0,0010;
8,138439;−0,0117;0,0078;1,0078;−0,0068;−0,0011;0,0704;−0,0015;−0,0002;−0,0010;
8,139270;−0,0117;0,0078;1,0078;−0,0068;−0,0011;0,0704;0,0003;0,0005;0,0008;
8,139712;−0,0117;0,0078;1,0078;−0,0187;0,0160;0,0704;0,0003;0,0005;0,0008;
8,189501;−0,0105;0,0076;1,0078;−0,0187;0,0160;0,0704;0,0003;0,0005;0,0008;
8,190893;−0,0105;0,0076;1,0078;−0,0187;0,0160;0,0704;0,0003;−0,0002;0,0002;
8,191563;−0,0105;0,0076;1,0078;−0,0063;0,0134;0,0704;0,0003;−0,0002;0,0002;
8,253795;−0,0100;0,0059;1,0078;−0,0063;0,0134;0,0704;0,0003;−0,0002;0,0002;
8,255235;−0,0100;0,0059;1,0078;−0,0063;0,0134;0,0704;0,0015;−0,0002;−0,0004;
8,255930;−0,0100;0,0059;1,0078;−0,0016;−0,0030;0,0704;0,0015;−0,0002;−0,0004;
8,313191;−0,0112;0,0076;1,0078;−0,0016;−0,0030;0,0704;0,0015;−0,0002;−0,0004;
8,314584;−0,0112;0,0076;1,0078;−0,0016;−0,0030;0,0704;0,0003;0,0005;0,0008;
8,315296;−0,0112;0,0076;1,0078;−0,0135;0,0135;0,0704;0,0003;0,0005;0,0008;
8,381152;−0,0112;0,0086;1,0073;−0,0135;0,0135;0,0704;0,0003;0,0005;0,0008;
8,382583;−0,0112;0,0086;1,0073;−0,0135;0,0135;0,0704;0,0011;0,0006;0,0008;
8,383329;−0,0112;0,0086;1,0073;−0,0134;0,0227;0,0656;0,0011;0,0006;0,0008;
8,430461;−0,0098;0,0078;1,0078;−0,0134;0,0227;0,0656;0,0011;0,0006;0,0008;
8,431823;−0,0098;0,0078;1,0078;−0,0134;0,0227;0,0656;−0,0002;−0,0000;0,0008;
8,432735;−0,0098;0,0078;1,0078;0,0012;0,0153;0,0704;−0,0002;−0,0000;0,0008;
8,499074;−0,0103;0,0059;1,0068;0,0012;0,0153;0,0704;−0,0002;−0,0000;0,0008;
8,500427;−0,0103;0,0059;1,0068;0,0012;0,0153;0,0704;−0,0014;−0,0000;−0,0004;
8,501114;−0,0103;0,0059;1,0068;−0,0035;−0,0042;0,0608;−0,0014;−0,0000;−0,0004;
8,550507;−0,0107;0,0051;1,0068;−0,0035;−0,0042;0,0608;−0,0014;−0,0000;−0,0004;
8,551898;−0,0107;0,0051;1,0068;−0,0035;−0,0042;0,0608;−0,0008;−0,0006;0,0002;
8,552788;−0,0107;0,0051;1,0068;−0,0083;−0,0116;0,0608;−0,0008;−0,0006;0,0002;
8,612425;−0,0103;0,0061;1,0071;−0,0083;−0,0116;0,0608;−0,0008;−0,0006;0,0002;
8,613655;−0,0103;0,0061;1,0071;−0,0083;−0,0116;0,0608;0,0005;−0,0000;−0,0004;
8,614424;−0,0103;0,0061;1,0071;−0,0035;−0,0019;0,0632;0,0005;−0,0000;−0,0004;
8,670104;−0,0105;0,0061;1,0066;−0,0035;−0,0019;0,0632;0,0005;−0,0000;−0,0004;
8,671422;−0,0105;0,0061;1,0066;−0,0035;−0,0019;0,0632;0,0005;−0,0000;−0,0004;
8,672119;−0,0105;0,0061;1,0066;−0,0059;−0,0018;0,0584;0,0005;−0,0000;−0,0004;
8,738299;−0,0110;0,0076;1,0075;−0,0059;−0,0018;0,0584;0,0005;−0,0000;−0,0004;
8,739413;−0,0110;0,0076;1,0075;−0,0059;−0,0018;0,0584;−0,0002;−0,0000;0,0002;
8,739993;−0,0110;0,0076;1,0075;−0,0104;0,0124;0,0680;−0,0002;−0,0000;0,0002;
8,789639;−0,0115;0,0068;1,0073;−0,0104;0,0124;0,0680;−0,0002;−0,0000;0,0002;
8,791110;−0,0115;0,0068;1,0073;−0,0104;0,0124;0,0680;0,0005;−0,0012;0,0002;
8,791897;−0,0115;0,0068;1,0073;−0,0150;0,0054;0,0656;0,0005;−0,0012;0,0002;
8,855712;−0,0103;0,0071;1,0090;−0,0150;0,0054;0,0656;0,0005;−0,0012;0,0002;
8,857022;−0,0103;0,0071;1,0090;−0,0150;0,0054;0,0656;0,0005;0,0006;−0,0004;
8,857763;−0,0103;0,0071;1,0090;−0,0032;0,0075;0,0824;0,0005;0,0006;−0,0004;
8,910876;−0,0095;0,0059;1,0080;−0,0032;0,0075;0,0824;0,0005;0,0006;−0,0004;
8,912178;−0,0095;0,0059;1,0080;−0,0032;0,0075;0,0824;0,0005;−0,0006;−0,0010;
8,913078;−0,0095;0,0059;1,0080;0,0044;−0,0047;0,0728;0,0005;−0,0006;−0,0010;
8,980865;−0,0100;0,0064;1,0061;0,0044;−0,0047;0,0728;0,0005;−0,0006;−0,0010;
8,982486;−0,0100;0,0064;1,0061;0,0044;−0,0047;0,0728;−0,0002;−0,0006;0,0002;
8,983272;−0,0100;0,0064;1,0061;−0,0005;0,0001;0,0537;−0,0002;−0,0006;0,0002;
9,029062;−0,0107;0,0078;1,0075;−0,0005;0,0001;0,0537;−0,0002;−0,0006;0,0002;
9,030660;−0,0107;0,0078;1,0075;−0,0005;0,0001;0,0537;0,0005;−0,0006;−0,0004;
9,031347;−0,0107;0,0078;1,0075;−0,0076;0,0143;0,0680;0,0005;−0,0006;−0,0004;
9,098570;−0,0098;0,0049;1,0080;−0,0076;0,0143;0,0680;0,0005;−0,0006;−0,0004;
9,099982;−0,0098;0,0049;1,0080;−0,0076;0,0143;0,0680;0,0005;0,0006;−0,0004;
9,101270;−0,0098;0,0049;1,0080;0,0023;−0,0148;0,0728;0,0005;0,0006;−0,0004;
9,150166;−0,0120;0,0073;1,0085;0,0023;−0,0148;0,0728;0,0005;0,0006;−0,0004;
9,151440;−0,0120;0,0073;1,0085;0,0023;−0,0148;0,0728;0,0005;−0,0012;−0,0010;
9,152231;−0,0120;0,0073;1,0085;−0,0190;0,0088;0,0776;0,0005;−0,0012;−0,0010;
9,212512;−0,0112;0,0083;1,0073;−0,0190;0,0088;0,0776;0,0005;−0,0012;−0,0010;
9,213895;−0,0112;0,0083;1,0073;−0,0190;0,0088;0,0776;0,0005;−0,0000;0,0002;
9,214770;−0,0112;0,0083;1,0073;−0,0120;0,0184;0,0656;0,0005;−0,0000;0,0002;
9,271255;−0,0120;0,0068;1,0090;−0,0120;0,0184;0,0656;0,0005;−0,0000;0,0002;
9,272541;−0,0120;0,0068;1,0090;−0,0120;0,0184;0,0656;−0,0014;−0,0006;0,0002;
9,273270;−0,0120;0,0068;1,0090;−0,0191;0,0039;0,0824;−0,0014;−0,0006;0,0002;
9,336777;−0,0095;0,0056;1,0071;−0,0191;0,0039;0,0824;−0,0014;−0,0006;0,0002;
9,337918;−0,0095;0,0056;1,0071;−0,0191;0,0039;0,0824;−0,0002;−0,0000;−0,0010;
9,339029;−0,0095;0,0056;1,0071;0,0050;−0,0082;0,0632;−0,0002;−0,0000;−0,0010;
9,388436;−0,0129;0,0061;1,0090;0,0050;−0,0082;0,0632;−0,0002;−0,0000;−0,0010;
9,389792;−0,0129;0,0061;1,0090;0,0050;−0,0082;0,0632;−0,0008;−0,0000;−0,0004;
9,390519;−0,0129;0,0061;1,0090;−0,0286;−0,0035;0,0824;−0,0008;−0,0000;−0,0004;
9,451270;−0,0107;0,0076;1,0071;−0,0286;−0,0035;0,0824;−0,0008;−0,0000;−0,0004;
9,452289;−0,0107;0,0076;1,0071;−0,0286;−0,0035;0,0824;−0,0014;−0,0000;0,0002;
9,452747;−0,0107;0,0076;1,0071;−0,0073;0,0114;0,0632;−0,0014;−0,0000;0,0002;
9,508720;−0,0110;0,0076;1,0085;−0,0073;0,0114;0,0632;−0,0014;−0,0000;0,0002;
9,509962;−0,0110;0,0076;1,0085;−0,0073;0,0114;0,0632;−0,0002;−0,0006;−0,0004;
9,510695;−0,0110;0,0076;1,0085;−0,0099;0,0113;0,0776;−0,0002;−0,0006;−0,0004;
9,580902;−0,0132;0,0071;1,0078;−0,0099;0,0113;0,0776;−0,0002;−0,0006;−0,0004;
9,582324;−0,0132;0,0071;1,0078;−0,0099;0,0113;0,0776;0,0011;−0,0000;0,0002;
9,583067;−0,0132;0,0071;1,0078;−0,0314;0,0063;0,0704;0,0011;−0,0000;0,0002;
9,627890;−0,0076;0,0064;1,0078;−0,0314;0,0063;0,0704;0,0011;−0,0000;0,0002;
9,629143;−0,0076;0,0064;1,0078;−0,0314;0,0063;0,0704;0,0011;−0,0000;−0,0010;
9,629837;−0,0076;0,0064;1,0078;0,0240;−0,0012;0,0704;0,0011;−0,0000;−0,0010;
9,698135;−0,0112;0,0078;1,0088;0,0240;−0,0012;0,0704;0,0011;−0,0000;−0,0010;
9,699202;−0,0112;0,0078;1,0088;0,0240;−0,0012;0,0704;0,0005;−0,0000;−0,0004;
9,699757;−0,0112;0,0078;1,0088;−0,0119;0,0129;0,0800;0,0005;−0,0000;−0,0004;
9,749313;−0,0120;0,0059;1,0075;−0,0119;0,0129;0,0800;0,0005;−0,0000;−0,0004;
9,750630;−0,0120;0,0059;1,0075;−0,0119;0,0129;0,0800;0,0011;0,0012;0,0002;
9,751307;−0,0120;0,0059;1,0075;−0,0189;−0,0064;0,0680;0,0011;0,0012;0,0002;
9,812332;−0,0125;0,0064;1,0073;−0,0189;−0,0064;0,0680;0,0011;0,0012;0,0002;
9,813573;−0,0125;0,0064;1,0073;−0,0189;−0,0064;0,0680;0,0005;−0,0006;0,0015;
9,814380;−0,0125;0,0064;1,0073;−0,0234;−0,0016;0,0656;0,0005;−0,0006;0,0015;
9,869240;−0,0098;0,0071;1,0085;−0,0234;−0,0016;0,0656;0,0005;−0,0006;0,0015;
9,870447;−0,0098;0,0071;1,0085;−0,0234;−0,0016;0,0656;−0,0008;−0,0006;0,0002;
9,871115;−0,0098;0,0071;1,0085;0,0030;0,0053;0,0776;−0,0008;−0,0006;0,0002;
9,938578;−0,0129;0,0076;1,0075;0,0030;0,0053;0,0776;−0,0008;−0,0006;0,0002;
9,939846;−0,0129;0,0076;1,0075;0,0030;0,0053;0,0776;−0,0002;−0,0006;0,0008;
9,940575;−0,0129;0,0076;1,0075;−0,0283;0,0104;0,0680;−0,0002;−0,0006;0,0008;
9,991126;−0,0125;0,0066;1,0080;−0,0283;0,0104;0,0680;−0,0002;−0,0006;0,0008;
9,992481;−0,0125;0,0066;1,0080;−0,0283;0,0104;0,0680;0,0005;−0,0006;0,0002;
9,993214;−0,0125;0,0066;1,0080;−0,0233;0,0007;0,0728;0,0005;−0,0006;0,0002;
10,054204;−0,0127;0,0076;1,0078;−0,0233;0,0007;0,0728;0,0005;−0,0006;0,0002;
10,055693;−0,0127;0,0076;1,0078;−0,0233;0,0007;0,0728;0,0005;0,0006;0,0008;
10,056442;−0,0127;0,0076;1,0078;−0,0256;0,0099;0,0704;0,0005;0,0006;0,0008;
10,111292;−0,0093;0,0076;1,0073;−0,0256;0,0099;0,0704;0,0005;0,0006;0,0008;
10,112825;−0,0093;0,0076;1,0073;−0,0256;0,0099;0,0704;−0,0002;0,0006;0,0002;
10,113573;−0,0093;0,0076;1,0073;0,0082;0,0096;0,0657;−0,0002;0,0006;0,0002;
10,180271;−0,0122;0,0076;1,0078;0,0082;0,0096;0,0657;−0,0002;0,0006;0,0002;
10,181608;−0,0122;0,0076;1,0078;0,0082;0,0096;0,0657;0,0005;−0,0000;−0,0004;
10,182425;−0,0122;0,0076;1,0078;−0,0205;0,0093;0,0704;0,0005;−0,0000;−0,0004;
10,229722;−0,0100;0,0081;1,0085;−0,0205;0,0093;0,0704;0,0005;−0,0000;−0,0004;
10,231286;−0,0100;0,0081;1,0085;−0,0205;0,0093;0,0704;−0,0002;−0,0006;−0,0004;
10,231979;−0,0100;0,0081;1,0085;0,0012;0,0139;0,0776;−0,0002;−0,0006;−0,0004;
10,300207;−0,0112;0,0061;1,0066;0,0012;0,0139;0,0776;−0,0002;−0,0006;−0,0004;
10,301389;−0,0112;0,0061;1,0066;0,0012;0,0139;0,0776;−0,0014;0,0006;0,0008;
10,302184;−0,0112;0,0061;1,0066;−0,0109;−0,0052;0,0585;−0,0014;0,0006;0,0008;
10,350467;−0,0098;0,0095;1,0073;−0,0109;−0,0052;0,0585;−0,0014;0,0006;0,0008;
10,351902;−0,0098;0,0095;1,0073;−0,0109;−0,0052;0,0585;0,0011;0,0006;−0,0004;
10,352594;−0,0098;0,0095;1,0073;0,0035;0,0287;0,0657;0,0011;0,0006;−0,0004;
10,413053;−0,0120;0,0061;1,0080;0,0035;0,0287;0,0657;0,0011;0,0006;−0,0004;
10,414592;−0,0120;0,0061;1,0080;0,0035;0,0287;0,0657;−0,0002;0,0012;−0,0004;
10,415289;−0,0120;0,0061;1,0080;−0,0182;−0,0049;0,0728;−0,0002;0,0012;−0,0004;
10,469158;−0,0110;0,0051;1,0063;−0,0182;−0,0049;0,0728;−0,0002;0,0012;−0,0004;
10,470602;−0,0110;0,0051;1,0063;−0,0182;−0,0049;0,0728;−0,0008;0,0012;0,0008;
10,471341;−0,0110;0,0051;1,0063;−0,0087;−0,0142;0,0561;−0,0008;0,0012;0,0008;
10,538663;−0,0125;0,0071;1,0071;−0,0087;−0,0142;0,0561;−0,0008;0,0012;0,0008;
10,539999;−0,0125;0,0071;1,0071;−0,0087;−0,0142;0,0561;0,0005;0,0006;−0,0004;
10,540740;−0,0125;0,0071;1,0071;−0,0228;0,0051;0,0633;0,0005;0,0006;−0,0004;
10,591080;−0,0127;0,0076;1,0075;−0,0228;0,0051;0,0633;0,0005;0,0006;−0,0004;
10,592245;−0,0127;0,0076;1,0075;−0,0228;0,0051;0,0633;−0,0008;0,0006;−0,0004;
10,592944;−0,0127;0,0076;1,0075;−0,0250;0,0096;0,0681;−0,0008;0,0006;−0,0004;
10,654258;−0,0098;0,0068;1,0080;−0,0250;0,0096;0,0681;−0,0008;0,0006;−0,0004;
10,655610;−0,0098;0,0068;1,0080;−0,0250;0,0096;0,0681;0,0005;0,0012;0,0015;
10,656332;−0,0098;0,0068;1,0080;0,0039;0,0027;0,0728;0,0005;0,0012;0,0015;
10,709655;−0,0098;0,0066;1,0090;0,0039;0,0027;0,0728;0,0005;0,0012;0,0015;
10,711140;−0,0098;0,0066;1,0090;0,0039;0,0027;0,0728;0,0005;−0,0000;0,0002;
10,711842;−0,0098;0,0066;1,0090;0,0043;0,0003;0,0824;0,0005;−0,0000;0,0002;
10,780918;−0,0125;0,0051;1,0088;0,0043;0,0003;0,0824;0,0005;−0,0000;0,0002;
10,782330;−0,0125;0,0051;1,0088;0,0043;0,0003;0,0824;−0,0002;−0,0000;0,0002;
10,783045;−0,0125;0,0051;1,0088;−0,0220;−0,0141;0,0800;−0,0002;−0,0000;0,0002;
10,830468;−0,0107;0,0071;1,0071;−0,0220;−0,0141;0,0800;−0,0002;−0,0000;0,0002;
10,831738;−0,0107;0,0071;1,0071;−0,0220;−0,0141;0,0800;−0,0002;−0,0012;0,0008;
10,832488;−0,0107;0,0071;1,0071;−0,0051;0,0051;0,0633;−0,0002;−0,0012;0,0008;
10,898844;−0,0100;0,0078;1,0066;−0,0051;0,0051;0,0633;−0,0002;−0,0012;0,0008;
10,900221;−0,0100;0,0078;1,0066;−0,0051;0,0051;0,0633;−0,0008;−0,0012;0,0002;
10,900954;−0,0100;0,0078;1,0066;0,0021;0,0121;0,0585;−0,0008;−0,0012;0,0002;
10,947926;−0,0107;0,0064;1,0063;0,0021;0,0121;0,0585;−0,0008;−0,0012;0,0002;
10,948608;−0,0107;0,0064;1,0063;0,0021;0,0121;0,0585;0,0005;0,0006;−0,0004;
10,948872;−0,0107;0,0064;1,0063;−0,0054;−0,0023;0,0561;0,0005;0,0006;−0,0004;
11,011309;−0,0112;0,0054;1,0078;−0,0054;−0,0023;0,0561;0,0005;0,0006;−0,0004;
11,012616;−0,0112;0,0054;1,0078;−0,0054;−0,0023;0,0561;0,0005;−0,0000;0,0002;
11,013327;−0,0112;0,0054;1,0078;−0,0102;−0,0119;0,0705;0,0005;−0,0000;0,0002;
11,069951;−0,0100;0,0081;1,0063;−0,0102;−0,0119;0,0705;0,0005;−0,0000;0,0002;
11,071502;−0,0100;0,0081;1,0063;−0,0102;−0,0119;0,0705;0,0011;−0,0000;−0,0004;
11,072220;−0,0100;0,0081;1,0063;0,0017;0,0144;0,0561;0,0011;−0,0000;−0,0004;
11,137824;−0,0117;0,0093;1,0090;0,0017;0,0144;0,0561;0,0011;−0,0000;−0,0004;
11,139330;−0,0117;0,0093;1,0090;0,0017;0,0144;0,0561;0,0005;0,0006;0,0002;
11,140090;−0,0117;0,0093;1,0090;−0,0151;0,0264;0,0824;0,0005;0,0006;0,0002;
11,190234;−0,0110;0,0064;1,0063;−0,0151;0,0264;0,0824;0,0005;0,0006;0,0002;
11,191557;−0,0110;0,0064;1,0063;−0,0151;0,0264;0,0824;0,0017;−0,0006;−0,0004;
11,192315;−0,0110;0,0064;1,0063;−0,0079;−0,0023;0,0561;0,0017;−0,0006;−0,0004;
11,254606;−0,0117;0,0061;1,0083;−0,0079;−0,0023;0,0561;0,0017;−0,0006;−0,0004;
11,255955;−0,0117;0,0061;1,0083;−0,0079;−0,0023;0,0561;−0,0002;0,0006;−0,0010;
11,256686;−0,0117;0,0061;1,0083;−0,0155;−0,0051;0,0752;−0,0002;0,0006;−0,0010;
11,308720;−0,0107;0,0076;1,0075;−0,0155;−0,0051;0,0752;−0,0002;0,0006;−0,0010;
11,310113;−0,0107;0,0076;1,0075;−0,0155;−0,0051;0,0752;−0,0014;−0,0006;−0,0004;
11,310838;−0,0107;0,0076;1,0075;−0,0058;0,0093;0,0681;−0,0014;−0,0006;−0,0004;
11,382214;−0,0107;0,0071;1,0066;−0,0058;0,0093;0,0681;−0,0014;−0,0006;−0,0004;
11,383695;−0,0107;0,0071;1,0066;−0,0058;0,0093;0,0681;0,0011;0,0006;−0,0010;
11,384496;−0,0107;0,0071;1,0066;−0,0058;0,0048;0,0585;0,0011;0,0006;−0,0010;
11,431295;−0,0112;0,0078;1,0063;−0,0058;0,0048;0,0585;0,0011;0,0006;−0,0010;
11,432669;−0,0112;0,0078;1,0063;−0,0058;0,0048;0,0585;−0,0002;−0,0000;−0,0010;
11,433390;−0,0112;0,0078;1,0063;−0,0106;0,0118;0,0561;−0,0002;−0,0000;−0,0010;
11,496895;−0,0110;0,0073;1,0063;−0,0106;0,0118;0,0561;−0,0002;−0,0000;−0,0010;
11,498372;−0,0110;0,0073;1,0063;−0,0106;0,0118;0,0561;−0,0002;−0,0000;−0,0004;
11,499065;−0,0110;0,0073;1,0063;−0,0081;0,0070;0,0561;−0,0002;−0,0000;−0,0004;
11,550861;−0,0105;0,0066;1,0066;−0,0081;0,0070;0,0561;−0,0002;−0,0000;−0,0004;
11,552198;−0,0105;0,0066;1,0066;−0,0081;0,0070;0,0561;0,0011;0,0006;0,0002;
11,552907;−0,0105;0,0066;1,0066;−0,0034;−0,0001;0,0585;0,0011;0,0006;0,0002;
11,611380;−0,0100;0,0068;1,0075;−0,0034;−0,0001;0,0585;0,0011;0,0006;0,0002;
11,612682;−0,0100;0,0068;1,0075;−0,0034;−0,0001;0,0585;−0,0002;0,0006;−0,0004;
11,613377;−0,0100;0,0068;1,0075;0,0016;0,0024;0,0681;−0,0002;0,0006;−0,0004;
11,670487;−0,0132;0,0059;1,0085;0,0016;0,0024;0,0681;−0,0002;0,0006;−0,0004;
11,671866;−0,0132;0,0059;1,0085;0,0016;0,0024;0,0681;0,0005;−0,0000;−0,0004;
11,672588;−0,0132;0,0059;1,0085;−0,0295;−0,0072;0,0776;0,0005;−0,0000;−0,0004;
11,737610;−0,0103;0,0061;1,0078;−0,0295;−0,0072;0,0776;0,0005;−0,0000;−0,0004;
11,739145;−0,0103;0,0061;1,0078;−0,0295;−0,0072;0,0776;−0,0008;−0,0000;−0,0004;
11,739986;−0,0103;0,0061;1,0078;−0,0006;−0,0049;0,0705;−0,0008;−0,0000;−0,0004;
11,790642;−0,0117;0,0068;1,0080;−0,0006;−0,0049;0,0705;−0,0008;−0,0000;−0,0004;
11,791923;−0,0117;0,0068;1,0080;−0,0006;−0,0049;0,0705;0,0005;−0,0000;0,0002;
11,792684;−0,0117;0,0068;1,0080;−0,0151;0,0025;0,0728;0,0005;−0,0000;0,0002;
11,854453;−0,0129;0,0044;1,0085;−0,0151;0,0025;0,0728;0,0005;−0,0000;0,0002;
11,855879;−0,0129;0,0044;1,0085;−0,0151;0,0025;0,0728;−0,0008;−0,0000;0,0008;
11,856633;−0,0129;0,0044;1,0085;−0,0274;−0,0215;0,0776;−0,0008;−0,0000;0,0008;
11,910784;−0,0112;0,0056;1,0061;−0,0274;−0,0215;0,0776;−0,0008;−0,0000;0,0008;
11,912083;−0,0112;0,0056;1,0061;−0,0274;−0,0215;0,0776;−0,0002;0,0006;−0,0004;
11,912754;−0,0112;0,0056;1,0061;−0,0105;−0,0094;0,0537;−0,0002;0,0006;−0,0004;
11,981209;−0,0103;0,0049;1,0071;−0,0105;−0,0094;0,0537;−0,0002;0,0006;−0,0004;
11,982646;−0,0103;0,0049;1,0071;−0,0105;−0,0094;0,0537;0,0017;0,0012;0,0008;
11,983366;−0,0103;0,0049;1,0071;−0,0010;−0,0164;0,0633;0,0017;0,0012;0,0008;
12,031008;−0,0115;0,0061;1,0071;−0,0010;−0,0164;0,0633;0,0017;0,0012;0,0008;
12,032237;−0,0115;0,0061;1,0071;−0,0010;−0,0164;0,0633;−0,0002;−0,0000;−0,0004;
12,032903;−0,0115;0,0061;1,0071;−0,0129;−0,0045;0,0633;−0,0002;−0,0000;−0,0004;
12,098570;−0,0120;0,0054;1,0085;−0,0129;−0,0045;0,0633;−0,0002;−0,0000;−0,0004;
12,099894;−0,0120;0,0054;1,0085;−0,0129;−0,0045;0,0633;0,0005;−0,0006;−0,0004;
12,100822;−0,0120;0,0054;1,0085;−0,0178;−0,0115;0,0776;0,0005;−0,0006;−0,0004;
12,150378;−0,0095;0,0071;1,0061;−0,0178;−0,0115;0,0776;0,0005;−0,0006;−0,0004;
12,151685;−0,0095;0,0071;1,0061;−0,0178;−0,0115;0,0776;0,0005;0,0006;0,0021;
12,152394;−0,0095;0,0071;1,0061;0,0062;0,0052;0,0537;0,0005;0,0006;0,0021;
12,212710;−0,0107;0,0061;1,0083;0,0062;0,0052;0,0537;0,0005;0,0006;0,0021;
12,213968;−0,0107;0,0061;1,0083;0,0062;0,0052;0,0537;0,0005;−0,0000;0,0002;
12,214860;−0,0107;0,0061;1,0083;−0,0056;−0,0045;0,0752;0,0005;−0,0000;0,0002;
12,269769;−0,0127;0,0071;1,0073;−0,0056;−0,0045;0,0752;0,0005;−0,0000;0,0002;
12,271210;−0,0127;0,0071;1,0073;−0,0056;−0,0045;0,0752;0,0005;0,0006;0,0002;
12,271922;−0,0127;0,0071;1,0073;−0,0248;0,0048;0,0657;0,0005;0,0006;0,0002;
12,338912;−0,0115;0,0066;1,0073;−0,0248;0,0048;0,0657;0,0005;0,0006;0,0002;
12,340242;−0,0115;0,0066;1,0073;−0,0248;0,0048;0,0657;−0,0008;−0,0000;0,0002;
12,340976;−0,0115;0,0066;1,0073;−0,0126;−0,0002;0,0657;−0,0008;−0,0000;0,0002;
12,391011;−0,0107;0,0061;1,0075;−0,0126;−0,0002;0,0657;−0,0008;−0,0000;0,0002;
12,392336;−0,0107;0,0061;1,0075;−0,0126;−0,0002;0,0657;−0,0008;−0,0000;0,0008;
12,393081;−0,0107;0,0061;1,0075;−0,0055;−0,0048;0,0681;−0,0008;−0,0000;0,0008;
12,454513;−0,0127;0,0061;1,0080;−0,0055;−0,0048;0,0681;−0,0008;−0,0000;0,0008;
12,455787;−0,0127;0,0061;1,0080;−0,0055;−0,0048;0,0681;0,0010;0,0005;0,0002;
12,456881;−0,0127;0,0061;1,0080;−0,0243;−0,0049;0,0729;0,0010;0,0005;0,0002;
12,510703;−0,0129;0,0093;1,0071;−0,0243;−0,0049;0,0729;0,0010;0,0005;0,0002;
12,511984;−0,0129;0,0093;1,0071;−0,0243;−0,0049;0,0729;−0,0008;−0,0001;0,0021;
12,512671;−0,0129;0,0093;1,0071;−0,0267;0,0260;0,0633;−0,0008;−0,0001;0,0021;
12,581660;−0,0122;0,0081;1,0075;−0,0267;0,0260;0,0633;−0,0008;−0,0001;0,0021;
12,583027;−0,0122;0,0081;1,0075;−0,0267;0,0260;0,0633;−0,0002;0,0005;0,0008;
12,583767;−0,0122;0,0081;1,0075;−0,0194;0,0141;0,0681;−0,0002;0,0005;0,0008;
12,629915;−0,0112;0,0061;1,0063;−0,0194;0,0141;0,0681;−0,0002;0,0005;0,0008;
12,631434;−0,0112;0,0061;1,0063;−0,0194;0,0141;0,0681;−0,0002;0,0005;−0,0004;
12,632122;−0,0112;0,0061;1,0063;−0,0098;−0,0049;0,0561;−0,0002;0,0005;−0,0004;
12,698002;−0,0107;0,0059;1,0073;−0,0098;−0,0049;0,0561;−0,0002;0,0005;−0,0004;
12,699336;−0,0107;0,0059;1,0073;−0,0098;−0,0049;0,0561;0,0004;−0,0001;0,0008;
12,700023;−0,0107;0,0059;1,0073;−0,0050;−0,0073;0,0657;0,0004;−0,0001;0,0008;
12,748854;−0,0095;0,0071;1,0075;−0,0050;−0,0073;0,0657;0,0004;−0,0001;0,0008;
12,750152;−0,0095;0,0071;1,0075;−0,0050;−0,0073;0,0657;0,0004;−0,0007;0,0002;
12,750824;−0,0095;0,0071;1,0075;0,0068;0,0047;0,0681;0,0004;−0,0007;0,0002;
12,811352;−0,0117;0,0064;1,0073;0,0068;0,0047;0,0681;0,0004;−0,0007;0,0002;
12,812714;−0,0117;0,0064;1,0073;0,0068;0,0047;0,0681;0,0010;−0,0001;0,0015;
12,813456;−0,0117;0,0064;1,0073;−0,0147;−0,0029;0,0657;0,0010;−0,0001;0,0015;
12,869448;−0,0125;0,0078;1,0083;−0,0147;−0,0029;0,0657;0,0010;−0,0001;0,0015;
12,870517;−0,0125;0,0078;1,0083;−0,0147;−0,0029;0,0657;−0,0015;−0,0001;0,0002;
12,871031;−0,0125;0,0078;1,0083;−0,0219;0,0113;0,0752;−0,0015;−0,0001;0,0002;
12,938764;−0,0095;0,0073;1,0080;−0,0219;0,0113;0,0752;−0,0015;−0,0001;0,0002;
12,940133;−0,0095;0,0073;1,0080;−0,0219;0,0113;0,0752;0,0004;0,0011;−0,0004;
12,940874;−0,0095;0,0073;1,0080;0,0067;0,0069;0,0729;0,0004;0,0011;−0,0004;
12,990660;−0,0117;0,0071;1,0080;0,0067;0,0069;0,0729;0,0004;0,0011;−0,0004;
12,991955;−0,0117;0,0071;1,0080;0,0067;0,0069;0,0729;0,0010;−0,0001;0,0008;
12,992695;−0,0117;0,0071;1,0080;−0,0147;0,0044;0,0729;0,0010;−0,0001;0,0008;
13,054706;−0,0100;0,0064;1,0075;−0,0147;0,0044;0,0729;0,0010;−0,0001;0,0008;
13,055542;−0,0100;0,0064;1,0075;−0,0147;0,0044;0,0729;0,0004;0,0005;0,0002;
13,055935;−0,0100;0,0064;1,0075;0,0018;−0,0026;0,0681;0,0004;0,0005;0,0002;
13,108064;−0,0117;0,0073;1,0061;0,0018;−0,0026;0,0681;0,0004;0,0005;0,0002;
13,109256;−0,0117;0,0073;1,0061;0,0018;−0,0026;0,0681;−0,0027;−0,0019;−0,0004;
13,109569;−0,0117;0,0073;1,0061;−0,0150;0,0070;0,0537;−0,0027;−0,0019;−0,0004;
13,180550;−0,0095;0,0046;1,0078;−0,0150;0,0070;0,0537;−0,0027;−0,0019;−0,0004;
13,181802;−0,0095;0,0046;1,0078;−0,0150;0,0070;0,0537;0,0016;−0,0001;0,0015;
13,182616;−0,0095;0,0046;1,0078;0,0062;−0,0188;0,0704;0,0016;−0,0001;0,0015;
13,229708;−0,0110;0,0068;1,0073;0,0062;−0,0188;0,0704;0,0016;−0,0001;0,0015;
13,231128;−0,0110;0,0068;1,0073;0,0062;−0,0188;0,0704;−0,0008;−0,0007;−0,0004;
13,231857;−0,0110;0,0068;1,0073;−0,0082;0,0027;0,0657;−0,0008;−0,0007;−0,0004;
13,298140;−0,0120;0,0068;1,0080;−0,0082;0,0027;0,0657;−0,0008;−0,0007;−0,0004;
13,299603;−0,0120;0,0068;1,0080;−0,0082;0,0027;0,0657;−0,0008;−0,0007;−0,0010;
13,300258;−0,0120;0,0068;1,0080;−0,0178;0,0029;0,0728;−0,0008;−0,0007;−0,0010;
13,350691;−0,0125;0,0078;1,0071;−0,0178;0,0029;0,0728;−0,0008;−0,0007;−0,0010;
13,352085;−0,0125;0,0078;1,0071;−0,0178;0,0029;0,0728;−0,0008;−0,0001;−0,0016;
13,352813;−0,0125;0,0078;1,0071;−0,0224;0,0125;0,0633;−0,0008;−0,0001;−0,0016;
13,412782;−0,0117;0,0081;1,0056;−0,0224;0,0125;0,0633;−0,0008;−0,0001;−0,0016;
13,414191;−0,0117;0,0081;1,0056;−0,0224;0,0125;0,0633;0,0004;0,0005;−0,0004;
13,414902;−0,0117;0,0081;1,0056;−0,0154;0,0153;0,0489;0,0004;0,0005;−0,0004;
13,470675;−0,0103;0,0051;1,0058;−0,0154;0,0153;0,0489;0,0004;0,0005;−0,0004;
13,472190;−0,0103;0,0051;1,0058;−0,0154;0,0153;0,0489;−0,0002;−0,0001;−0,0004;
13,472932;−0,0103;0,0051;1,0058;−0,0011;−0,0132;0,0513;−0,0002;−0,0001;−0,0004;
13,537884;−0,0095;0,0064;1,0083;−0,0011;−0,0132;0,0513;−0,0002;−0,0001;−0,0004;
13,539349;−0,0095;0,0064;1,0083;−0,0011;−0,0132;0,0513;−0,0002;0,0005;0,0002;
13,540115;−0,0095;0,0064;1,0083;0,0059;−0,0008;0,0752;−0,0002;0,0005;0,0002;
13,589934;−0,0105;0,0061;1,0075;0,0059;−0,0008;0,0752;−0,0002;0,0005;0,0002;
13,591392;−0,0105;0,0061;1,0075;0,0059;−0,0008;0,0752;−0,0002;−0,0001;−0,0004;
13,592134;−0,0105;0,0061;1,0075;−0,0036;−0,0032;0,0680;−0,0002;−0,0001;−0,0004;
13,653898;−0,0134;0,0076;1,0068;−0,0036;−0,0032;0,0680;−0,0002;−0,0001;−0,0004;
13,655131;−0,0134;0,0076;1,0068;−0,0036;−0,0032;0,0680;−0,0002;−0,0001;0,0008;
13,655789;−0,0134;0,0076;1,0068;−0,0323;0,0111;0,0609;−0,0002;−0,0001;0,0008;
13,710790;−0,0107;0,0078;1,0073;−0,0323;0,0111;0,0609;−0,0002;−0,0001;0,0008;
13,712058;−0,0107;0,0078;1,0073;−0,0323;0,0111;0,0609;−0,0008;−0,0001;0,0008;
13,712879;−0,0107;0,0078;1,0073;−0,0062;0,0137;0,0656;−0,0008;−0,0001;0,0008;
13,780384;−0,0103;0,0049;1,0083;−0,0062;0,0137;0,0656;−0,0008;−0,0001;0,0008;
13,781755;−0,0103;0,0049;1,0083;−0,0062;0,0137;0,0656;−0,0002;−0,0001;−0,0010;
13,782646;−0,0103;0,0049;1,0083;−0,0013;−0,0152;0,0752;−0,0002;−0,0001;−0,0010;
13,830329;−0,0090;0,0088;1,0071;−0,0013;−0,0152;0,0752;−0,0002;−0,0001;−0,0010;
13,831618;−0,0090;0,0088;1,0071;−0,0013;−0,0152;0,0752;−0,0002;0,0005;−0,0010;
13,832294;−0,0090;0,0088;1,0071;0,0106;0,0232;0,0633;−0,0002;0,0005;−0,0010;
13,897821;−0,0115;0,0071;1,0078;0,0106;0,0232;0,0633;−0,0002;0,0005;−0,0010;
13,899242;−0,0115;0,0071;1,0078;0,0106;0,0232;0,0633;0,0010;0,0005;0,0002;
13,900004;−0,0115;0,0071;1,0078;−0,0134;0,0064;0,0704;0,0010;0,0005;0,0002;
13,948464;−0,0090;0,0088;1,0078;−0,0134;0,0064;0,0704;0,0010;0,0005;0,0002;
13,949670;−0,0090;0,0088;1,0078;−0,0134;0,0064;0,0704;0,0004;−0,0001;0,0015;
13,950473;−0,0090;0,0088;1,0078;0,0105;0,0233;0,0704;0,0004;−0,0001;0,0015;
14,012226;−0,0110;0,0098;1,0068;0,0105;0,0233;0,0704;0,0004;−0,0001;0,0015;
14,013739;−0,0110;0,0098;1,0068;0,0105;0,0233;0,0704;−0,0008;0,0005;0,0008;
14,014616;−0,0110;0,0098;1,0068;−0,0086;0,0326;0,0609;−0,0008;0,0005;0,0008;
14,070562;−0,0105;0,0081;1,0080;−0,0086;0,0326;0,0609;−0,0008;0,0005;0,0008;
14,071887;−0,0105;0,0081;1,0080;−0,0086;0,0326;0,0609;−0,0015;−0,0001;0,0008;
14,072657;−0,0105;0,0081;1,0080;−0,0037;0,0160;0,0728;−0,0015;−0,0001;0,0008;
14,138761;−0,0103;0,0088;1,0090;−0,0037;0,0160;0,0728;−0,0015;−0,0001;0,0008;
14,140229;−0,0103;0,0088;1,0090;−0,0037;0,0160;0,0728;0,0004;−0,0001;0,0008;
14,140470;−0,0103;0,0088;1,0090;−0,0013;0,0232;0,0824;0,0004;−0,0001;0,0008;
14,190714;−0,0107;0,0071;1,0088;−0,0013;0,0232;0,0824;0,0004;−0,0001;0,0008;
14,192168;−0,0107;0,0071;1,0088;−0,0013;0,0232;0,0824;0,0004;−0,0001;0,0002;
14,192899;−0,0107;0,0071;1,0088;−0,0060;0,0061;0,0800;0,0004;−0,0001;0,0002;
14,253472;−0,0100;0,0076;1,0073;−0,0060;0,0061;0,0800;0,0004;−0,0001;0,0002;
14,254830;−0,0100;0,0076;1,0073;−0,0060;0,0061;0,0800;−0,0008;0,0005;−0,0004;
14,255570;−0,0100;0,0076;1,0073;0,0010;0,0108;0,0656;−0,0008;0,0005;−0,0004;
14,310875;−0,0112;0,0078;1,0083;0,0010;0,0108;0,0656;−0,0008;0,0005;−0,0004;
14,312135;−0,0112;0,0078;1,0083;0,0010;0,0108;0,0656;−0,0015;−0,0013;−0,0004;
14,312817;−0,0112;0,0078;1,0083;−0,0110;0,0131;0,0752;−0,0015;−0,0013;−0,0004;
14,380710;−0,0100;0,0064;1,0068;−0,0110;0,0131;0,0752;−0,0015;−0,0013;−0,0004;
14,382181;−0,0100;0,0064;1,0068;−0,0110;0,0131;0,0752;−0,0002;0,0005;0,0008;
14,382925;−0,0100;0,0064;1,0068;0,0009;−0,0012;0,0609;−0,0002;0,0005;0,0008;
14,428672;−0,0090;0,0073;1,0100;0,0009;−0,0012;0,0609;−0,0002;0,0005;0,0008;
14,430261;−0,0090;0,0073;1,0100;0,0009;−0,0012;0,0609;−0,0015;−0,0007;0,0015;
14,431042;−0,0090;0,0073;1,0100;0,0105;0,0086;0,0920;−0,0015;−0,0007;0,0015;
14,498125;−0,0107;0,0081;1,0063;0,0105;0,0086;0,0920;−0,0015;−0,0007;0,0015;
14,499585;−0,0107;0,0081;1,0063;0,0105;0,0086;0,0920;0,0010;−0,0007;0,0002;
14,500334;−0,0107;0,0081;1,0063;−0,0061;0,0159;0,0561;0,0010;−0,0007;0,0002;
14,549525;−0,0125;0,0073;1,0097;−0,0061;0,0159;0,0561;0,0010;−0,0007;0,0002;
14,551140;−0,0125;0,0073;1,0097;−0,0061;0,0159;0,0561;−0,0015;−0,0007;−0,0010;
14,552041;−0,0125;0,0073;1,0097;−0,0232;0,0086;0,0896;−0,0015;−0,0007;−0,0010;
14,612752;−0,0115;0,0061;1,0093;−0,0232;0,0086;0,0896;−0,0015;−0,0007;−0,0010;
14,613589;−0,0115;0,0061;1,0093;−0,0232;0,0086;0,0896;0,0004;−0,0001;0,0008;
14,614077;−0,0115;0,0061;1,0093;−0,0136;−0,0032;0,0848;0,0004;−0,0001;0,0008;
14,668691;−0,0105;0,0061;1,0068;−0,0136;−0,0032;0,0848;0,0004;−0,0001;0,0008;
14,669912;−0,0105;0,0061;1,0068;−0,0136;−0,0032;0,0848;−0,0002;−0,0007;0,0008;
14,670742;−0,0105;0,0061;1,0068;−0,0042;−0,0032;0,0609;−0,0002;−0,0007;0,0008;
14,736173;−0,0105;0,0064;1,0085;−0,0042;−0,0032;0,0609;−0,0002;−0,0007;0,0008;
14,737422;−0,0105;0,0064;1,0085;−0,0042;−0,0032;0,0609;0,0028;0,0005;0,0008;
14,738357;−0,0105;0,0064;1,0085;−0,0042;−0,0008;0,0776;0,0028;0,0005;0,0008;
14,790236;−0,0107;0,0059;1,0063;−0,0042;−0,0008;0,0776;0,0028;0,0005;0,0008;
14,791591;−0,0107;0,0059;1,0063;−0,0042;−0,0008;0,0776;−0,0008;−0,0001;−0,0004;
14,792302;−0,0107;0,0059;1,0063;−0,0066;−0,0059;0,0561;−0,0008;−0,0001;−0,0004;
14,853571;−0,0093;0,0066;1,0080;−0,0066;−0,0059;0,0561;−0,0008;−0,0001;−0,0004;
14,854828;−0,0093;0,0066;1,0080;−0,0066;−0,0059;0,0561;0,0004;0,0005;−0,0010;
14,855499;−0,0093;0,0066;1,0080;0,0080;0,0009;0,0728;0,0004;0,0005;−0,0010;
14,909468;−0,0103;0,0064;1,0075;0,0080;0,0009;0,0728;0,0004;0,0005;−0,0010;
14,910928;−0,0103;0,0064;1,0075;0,0080;0,0009;0,0728;−0,0002;0,0005;0,0002;
14,911661;−0,0103;0,0064;1,0075;−0,0016;−0,0015;0,0680;−0,0002;0,0005;0,0002;
14,980767;−0,0125;0,0076;1,0073;−0,0016;−0,0015;0,0680;−0,0002;0,0005;0,0002;
14,982265;−0,0125;0,0076;1,0073;−0,0016;−0,0015;0,0680;−0,0002;−0,0001;−0,0004;
14,983008;−0,0125;0,0076;1,0073;−0,0231;0,0107;0,0656;−0,0002;−0,0001;−0,0004;
15,029759;−0,0112;0,0066;1,0063;−0,0231;0,0107;0,0656;−0,0002;−0,0001;−0,0004;
15,031180;−0,0112;0,0066;1,0063;−0,0231;0,0107;0,0656;−0,0002;−0,0001;−0,0004;
15,031905;−0,0112;0,0066;1,0063;−0,0110;0,0012;0,0561;−0,0002;−0,0001;−0,0004;
15,098551;−0,0115;0,0068;1,0080;−0,0110;0,0012;0,0561;−0,0002;−0,0001;−0,0004;
15,099801;−0,0115;0,0068;1,0080;−0,0110;0,0012;0,0561;−0,0002;−0,0007;−0,0004;
15,101064;−0,0115;0,0068;1,0080;−0,0136;0,0037;0,0728;−0,0002;−0,0007;−0,0004;
15,147966;−0,0103;0,0044;1,0085;−0,0136;0,0037;0,0728;−0,0002;−0,0007;−0,0004;
15,148901;−0,0103;0,0044;1,0085;−0,0136;0,0037;0,0728;0,0004;0,0011;0,0008;
15,149304;−0,0103;0,0044;1,0085;−0,0016;−0,0201;0,0776;0,0004;0,0011;0,0008;
15,211476;−0,0117;0,0071;1,0083;−0,0016;−0,0201;0,0776;0,0004;0,0011;0,0008;
15,212803;−0,0117;0,0071;1,0083;−0,0016;−0,0201;0,0776;0,0004;0,0005;0,0008;
15,213541;−0,0117;0,0071;1,0083;−0,0158;0,0062;0,0752;0,0004;0,0005;0,0008;
15,270094;−0,0122;0,0081;1,0075;−0,0158;0,0062;0,0752;0,0004;0,0005;0,0008;
15,271459;−0,0122;0,0081;1,0075;−0,0158;0,0062;0,0752;−0,0002;−0,0001;0,0002;
15,272159;−0,0122;0,0081;1,0075;−0,0205;0,0156;0,0680;−0,0002;−0,0001;0,0002;
15,338699;−0,0100;0,0059;1,0071;−0,0205;0,0156;0,0680;−0,0002;−0,0001;0,0002;
15,340093;−0,0100;0,0059;1,0071;−0,0205;0,0156;0,0680;−0,0008;−0,0001;−0,0004;
15,340840;−0,0100;0,0059;1,0071;0,0010;−0,0060;0,0633;−0,0008;−0,0001;−0,0004;
15,391674;−0,0100;0,0073;1,0063;0,0010;−0,0060;0,0633;−0,0008;−0,0001;−0,0004;
15,392912;−0,0100;0,0073;1,0063;0,0010;−0,0060;0,0633;0,0010;0,0018;−0,0004;
15,393592;−0,0100;0,0073;1,0063;0,0012;0,0085;0,0561;0,0010;0,0018;−0,0004;
15,454117;−0,0112;0,0073;1,0066;0,0012;0,0085;0,0561;0,0010;0,0018;−0,0004;
15,455446;−0,0112;0,0073;1,0066;0,0012;0,0085;0,0561;0,0004;−0,0001;−0,0004;
15,456165;−0,0112;0,0073;1,0066;−0,0106;0,0084;0,0585;0,0004;−0,0001;−0,0004;
15,510203;−0,0107;0,0086;1,0073;−0,0106;0,0084;0,0585;0,0004;−0,0001;−0,0004;
15,511543;−0,0107;0,0086;1,0073;−0,0106;0,0084;0,0585;−0,0008;−0,0007;0,0008;
15,512291;−0,0107;0,0086;1,0073;−0,0056;0,0202;0,0657;−0,0008;−0,0007;0,0008;
15,580327;−0,0125;0,0059;1,0071;−0,0056;0,0202;0,0657;−0,0008;−0,0007;0,0008;
15,581728;−0,0125;0,0059;1,0071;−0,0056;0,0202;0,0657;0,0004;−0,0001;−0,0004;
15,582596;−0,0125;0,0059;1,0071;−0,0223;−0,0057;0,0633;0,0004;−0,0001;−0,0004;
15,630236;−0,0105;0,0076;1,0075;−0,0223;−0,0057;0,0633;0,0004;−0,0001;−0,0004;
15,631607;−0,0105;0,0076;1,0075;−0,0223;−0,0057;0,0633;−0,0002;−0,0001;−0,0004;
15,632359;−0,0105;0,0076;1,0075;−0,0030;0,0108;0,0681;−0,0002;−0,0001;−0,0004;
15,697680;−0,0127;0,0073;1,0080;−0,0030;0,0108;0,0681;−0,0002;−0,0001;−0,0004;
15,699192;−0,0127;0,0073;1,0080;−0,0030;0,0108;0,0681;−0,0008;−0,0007;−0,0010;
15,699874;−0,0127;0,0073;1,0080;−0,0244;0,0081;0,0728;−0,0008;−0,0007;−0,0010;
15,749996;−0,0100;0,0081;1,0078;−0,0244;0,0081;0,0728;−0,0008;−0,0007;−0,0010;
15,751330;−0,0100;0,0081;1,0078;−0,0244;0,0081;0,0728;−0,0002;−0,0001;0,0002;
15,752020;−0,0100;0,0081;1,0078;0,0018;0,0153;0,0704;−0,0002;−0,0001;0,0002;
15,812985;−0,0107;0,0068;1,0080;0,0018;0,0153;0,0704;−0,0002;−0,0001;0,0002;
15,814510;−0,0107;0,0068;1,0080;0,0018;0,0153;0,0704;−0,0008;−0,0007;0,0008;
15,815265;−0,0107;0,0068;1,0080;−0,0054;0,0035;0,0728;−0,0008;−0,0007;0,0008;
15,869677;−0,0120;0,0078;1,0071;−0,0054;0,0035;0,0728;−0,0008;−0,0007;0,0008;
15,871035;−0,0120;0,0078;1,0071;−0,0054;0,0035;0,0728;−0,0015;−0,0013;−0,0016;
15,871787;−0,0120;0,0078;1,0071;−0,0174;0,0132;0,0633;−0,0015;−0,0013;−0,0016;
15,939763;−0,0112;0,0071;1,0085;−0,0174;0,0132;0,0633;−0,0015;−0,0013;−0,0016;
15,941200;−0,0112;0,0071;1,0085;−0,0174;0,0132;0,0633;0,0004;−0,0001;−0,0004;
15,941868;−0,0112;0,0071;1,0085;−0,0104;0,0063;0,0776;0,0004;−0,0001;−0,0004;
15,991532;−0,0115;0,0068;1,0058;−0,0104;0,0063;0,0776;0,0004;−0,0001;−0,0004;
15,992820;−0,0115;0,0068;1,0058;−0,0104;0,0063;0,0776;−0,0002;0,0005;0,0008;
15,993509;−0,0115;0,0068;1,0058;−0,0125;0,0035;0,0513;−0,0002;0,0005;0,0008;
16,054556;−0,0110;0,0081;1,0080;−0,0125;0,0035;0,0513;−0,0002;0,0005;0,0008;
16,055926;−0,0110;0,0081;1,0080;−0,0125;0,0035;0,0513;0,0016;−0,0001;0,0008;
16,056666;−0,0110;0,0081;1,0080;−0,0075;0,0153;0,0728;0,0016;−0,0001;0,0008;
16,109249;−0,0107;0,0073;1,0073;−0,0075;0,0153;0,0728;0,0016;−0,0001;0,0008;
16,110867;−0,0107;0,0073;1,0073;−0,0075;0,0153;0,0728;−0,0008;−0,0007;−0,0022;
16,111774;−0,0107;0,0073;1,0073;−0,0052;0,0084;0,0657;−0,0008;−0,0007;−0,0022;
16,180312;−0,0107;0,0083;1,0080;−0,0052;0,0084;0,0657;−0,0008;−0,0007;−0,0022;
16,181633;−0,0107;0,0083;1,0080;−0,0052;0,0084;0,0657;−0,0002;−0,0007;0,0008;
16,182427;−0,0107;0,0083;1,0080;−0,0053;0,0182;0,0728;−0,0002;−0,0007;0,0008;
16,229999;−0,0110;0,0066;1,0066;−0,0053;0,0182;0,0728;−0,0002;−0,0007;0,0008;
16,231390;−0,0110;0,0066;1,0066;−0,0053;0,0182;0,0728;−0,0002;0,0005;−0,0016;
16,232118;−0,0110;0,0066;1,0066;−0,0075;0,0013;0,0585;−0,0002;0,0005;−0,0016;
16,297478;−0,0105;0,0064;1,0078;−0,0075;0,0013;0,0585;−0,0002;0,0005;−0,0016;
16,298870;−0,0105;0,0064;1,0078;−0,0075;0,0013;0,0585;0,0004;0,0005;0,0002;
16,299599;−0,0105;0,0064;1,0078;−0,0026;−0,0010;0,0704;0,0004;0,0005;0,0002;
16,350610;−0,0122;0,0068;1,0066;−0,0026;−0,0010;0,0704;0,0004;0,0005;0,0002;
16,351983;−0,0122;0,0068;1,0066;−0,0026;−0,0010;0,0704;0,0004;−0,0007;0,0008;
16,352710;−0,0122;0,0068;1,0066;−0,0193;0,0035;0,0585;0,0004;−0,0007;0,0008;
16,412678;−0,0107;0,0059;1,0075;−0,0193;0,0035;0,0585;0,0004;−0,0007;0,0008;
16,413952;−0,0107;0,0059;1,0075;−0,0193;0,0035;0,0585;0,0010;−0,0007;−0,0004;
16,414819;−0,0107;0,0059;1,0075;−0,0049;−0,0059;0,0681;0,0010;−0,0007;−0,0004;
16,471510;−0,0117;0,0078;1,0083;−0,0049;−0,0059;0,0681;0,0010;−0,0007;−0,0004;
16,472805;−0,0117;0,0078;1,0083;−0,0049;−0,0059;0,0681;0,0004;−0,0007;0,0002;
16,473495;−0,0117;0,0078;1,0083;−0,0144;0,0130;0,0752;0,0004;−0,0007;0,0002;
16,538868;−0,0134;0,0088;1,0066;−0,0144;0,0130;0,0752;0,0004;−0,0007;0,0002;
16,540204;−0,0134;0,0088;1,0066;−0,0144;0,0130;0,0752;0,0004;−0,0006;0,0002;
16,540928;−0,0134;0,0088;1,0066;−0,0309;0,0227;0,0585;0,0004;−0,0006;0,0002;
16,590676;−0,0107;0,0078;1,0051;−0,0309;0,0227;0,0585;0,0004;−0,0006;0,0002;
16,592115;−0,0107;0,0078;1,0051;−0,0309;0,0227;0,0585;−0,0002;−0,0000;0,0008;
16,592789;−0,0107;0,0078;1,0051;−0,0045;0,0131;0,0441;−0,0002;−0,0000;0,0008;
16,653855;−0,0117;0,0056;1,0078;−0,0045;0,0131;0,0441;−0,0002;−0,0000;0,0008;
16,655423;−0,0117;0,0056;1,0078;−0,0045;0,0131;0,0441;0,0010;0,0006;−0,0005;
16,656131;−0,0117;0,0056;1,0078;−0,0139;−0,0086;0,0705;0,0010;0,0006;−0,0005;
16,711868;−0,0090;0,0056;1,0071;−0,0139;−0,0086;0,0705;0,0010;0,0006;−0,0005;
16,713269;−0,0090;0,0056;1,0071;−0,0139;−0,0086;0,0705;−0,0008;−0,0000;0,0002;
16,713962;−0,0090;0,0056;1,0071;0,0124;−0,0087;0,0633;−0,0008;−0,0000;0,0002;
16,780214;−0,0112;0,0078;1,0068;0,0124;−0,0087;0,0633;−0,0008;−0,0000;0,0002;
16,781143;−0,0112;0,0078;1,0068;0,0124;−0,0087;0,0633;0,0004;0,0006;−0,0005;
16,781589;−0,0112;0,0078;1,0068;−0,0090;0,0131;0,0609;0,0004;0,0006;−0,0005;
16,829509;−0,0125;0,0064;1,0061;−0,0090;0,0131;0,0609;0,0004;0,0006;−0,0005;
16,830884;−0,0125;0,0064;1,0061;−0,0090;0,0131;0,0609;−0,0002;−0,0006;−0,0005;
16,831645;−0,0125;0,0064;1,0061;−0,0210;−0,0015;0,0537;−0,0002;−0,0006;−0,0005;
16,896984;−0,0115;0,0068;1,0078;−0,0210;−0,0015;0,0537;−0,0002;−0,0006;−0,0005;
16,898350;−0,0115;0,0068;1,0078;−0,0210;−0,0015;0,0537;−0,0008;−0,0000;0,0002;
16,898982;−0,0115;0,0068;1,0078;−0,0113;0,0035;0,0705;−0,0008;−0,0000;0,0002;
16,948396;−0,0110;0,0076;1,0068;−0,0113;0,0035;0,0705;−0,0008;−0,0000;0,0002;
16,950185;−0,0110;0,0076;1,0068;−0,0113;0,0035;0,0705;0,0004;−0,0012;−0,0005;
16,950926;−0,0110;0,0076;1,0068;−0,0064;0,0109;0,0609;0,0004;−0,0012;−0,0005;
17,013745;−0,0098;0,0078;1,0085;−0,0064;0,0109;0,0609;0,0004;−0,0012;−0,0005;
17,015145;−0,0098;0,0078;1,0085;−0,0064;0,0109;0,0609;−0,0008;−0,0000;0,0008;
17,015879;−0,0098;0,0078;1,0085;0,0056;0,0131;0,0776;−0,0008;−0,0000;0,0008;
17,069159;−0,0117;0,0066;1,0071;0,0056;0,0131;0,0776;−0,0008;−0,0000;0,0008;
17,070689;−0,0117;0,0066;1,0071;0,0056;0,0131;0,0776;0,0004;0,0006;−0,0011;
17,071436;−0,0117;0,0066;1,0071;−0,0135;0,0011;0,0633;0,0004;0,0006;−0,0011;
17,138421;−0,0103;0,0078;1,0061;−0,0135;0,0011;0,0633;0,0004;0,0006;−0,0011;
17,139755;−0,0103;0,0078;1,0061;−0,0135;0,0011;0,0633;0,0004;−0,0000;−0,0005;
17,140472;−0,0103;0,0078;1,0061;0,0008;0,0135;0,0537;0,0004;−0,0000;−0,0005;
17,191105;−0,0105;0,0068;1,0073;0,0008;0,0135;0,0537;0,0004;−0,0000;−0,0005;
17,192364;−0,0105;0,0068;1,0073;0,0008;0,0135;0,0537;−0,0002;−0,0012;0,0008;
17,193114;−0,0105;0,0068;1,0073;−0,0017;0,0041;0,0657;−0,0002;−0,0012;0,0008;
17,253635;−0,0122;0,0046;1,0071;−0,0017;0,0041;0,0657;−0,0002;−0,0012;0,0008;
17,255053;−0,0122;0,0046;1,0071;−0,0017;0,0041;0,0657;0,0004;−0,0000;−0,0005;
17,255783;−0,0122;0,0046;1,0071;−0,0187;−0,0172;0,0633;0,0004;−0,0000;−0,0005;
17,311738;−0,0112;0,0083;1,0068;−0,0187;−0,0172;0,0633;0,0004;−0,0000;−0,0005;
17,312984;−0,0112;0,0083;1,0068;−0,0187;−0,0172;0,0633;0,0004;0,0012;0,0008;
17,313678;−0,0112;0,0083;1,0068;−0,0091;0,0187;0,0609;0,0004;0,0012;0,0008;
17,379846;−0,0110;0,0068;1,0054;−0,0091;0,0187;0,0609;0,0004;0,0012;0,0008;
17,381237;−0,0110;0,0068;1,0054;−0,0091;0,0187;0,0609;−0,0002;−0,0000;0,0002;
17,381993;−0,0110;0,0068;1,0054;−0,0065;0,0043;0,0465;−0,0002;−0,0000;0,0002;
17,431044;−0,0117;0,0056;1,0073;−0,0065;0,0043;0,0465;−0,0002;−0,0000;0,0002;
17,432450;−0,0117;0,0056;1,0073;−0,0065;0,0043;0,0465;−0,0008;−0,0000;0,0002;
17,433129;−0,0117;0,0056;1,0073;−0,0137;−0,0077;0,0657;−0,0008;−0,0000;0,0002;
17,498564;−0,0107;0,0081;1,0061;−0,0137;−0,0077;0,0657;−0,0008;−0,0000;0,0002;
17,499901;−0,0107;0,0081;1,0061;−0,0137;−0,0077;0,0657;−0,0002;−0,0006;−0,0005;
17,500617;−0,0107;0,0081;1,0061;−0,0042;0,0163;0,0537;−0,0002;−0,0006;−0,0005;
17,550674;−0,0078;0,0056;1,0063;−0,0042;0,0163;0,0537;−0,0002;−0,0006;−0,0005;
17,551972;−0,0078;0,0056;1,0063;−0,0042;0,0163;0,0537;−0,0008;−0,0012;−0,0005;
17,552734;−0,0078;0,0056;1,0063;0,0244;−0,0076;0,0561;−0,0008;−0,0012;−0,0005;
17,612386;−0,0105;0,0081;1,0080;0,0244;−0,0076;0,0561;−0,0008;−0,0012;−0,0005;
17,613657;−0,0105;0,0081;1,0080;0,0244;−0,0076;0,0561;0,0010;−0,0000;0,0008;
17,614504;−0,0105;0,0081;1,0080;−0,0021;0,0165;0,0728;0,0010;−0,0000;0,0008;
17,670439;−0,0122;0,0073;1,0085;−0,0021;0,0165;0,0728;0,0010;−0,0000;0,0008;
17,671698;−0,0122;0,0073;1,0085;−0,0021;0,0165;0,0728;−0,0002;0,0006;−0,0011;
17,672400;−0,0122;0,0073;1,0085;−0,0187;0,0091;0,0776;−0,0002;0,0006;−0,0011;
17,738285;−0,0093;0,0051;1,0073;−0,0187;0,0091;0,0776;−0,0002;0,0006;−0,0011;
17,739409;−0,0093;0,0051;1,0073;−0,0187;0,0091;0,0776;−0,0021;−0,0006;0,0008;
17,739718;−0,0093;0,0051;1,0073;0,0101;−0,0124;0,0657;−0,0021;−0,0006;0,0008;
17,788299;−0,0105;0,0071;1,0058;0,0101;−0,0124;0,0657;−0,0021;−0,0006;0,0008;
17,789627;−0,0105;0,0071;1,0058;0,0101;−0,0124;0,0657;0,0004;−0,0000;0,0008;
17,790541;−0,0105;0,0071;1,0058;−0,0019;0,0068;0,0513;0,0004;−0,0000;0,0008;
17,852868;−0,0117;0,0056;1,0075;−0,0019;0,0068;0,0513;0,0004;−0,0000;0,0008;
17,854385;−0,0117;0,0056;1,0075;−0,0019;0,0068;0,0513;−0,0002;−0,0006;−0,0017;
17,855169;−0,0117;0,0056;1,0075;−0,0140;−0,0074;0,0681;−0,0002;−0,0006;−0,0017;
17,909725;−0,0107;0,0073;1,0073;−0,0140;−0,0074;0,0681;−0,0002;−0,0006;−0,0017;
17,911164;−0,0107;0,0073;1,0073;−0,0140;−0,0074;0,0681;0,0004;−0,0000;0,0014;
17,912054;−0,0107;0,0073;1,0073;−0,0047;0,0094;0,0657;0,0004;−0,0000;0,0014;
17,980822;−0,0110;0,0056;1,0078;−0,0047;0,0094;0,0657;0,0004;−0,0000;0,0014;
17,982200;−0,0110;0,0056;1,0078;−0,0047;0,0094;0,0657;−0,0008;0,0006;0,0008;
17,982967;−0,0110;0,0056;1,0078;−0,0069;−0,0072;0,0704;−0,0008;0,0006;0,0008;
18,029206;−0,0122;0,0064;1,0063;−0,0069;−0,0072;0,0704;−0,0008;0,0006;0,0008;
18,030659;−0,0122;0,0064;1,0063;−0,0069;−0,0072;0,0704;0,0004;−0,0000;−0,0005;
18,031358;−0,0122;0,0064;1,0063;−0,0186;0,0000;0,0561;0,0004;−0,0000;−0,0005;
18,096826;−0,0105;0,0081;1,0056;−0,0186;0,0000;0,0561;0,0004;−0,0000;−0,0005;
18,098138;−0,0105;0,0081;1,0056;−0,0186;0,0000;0,0561;−0,0002;−0,0000;−0,0005;
18,099011;−0,0105;0,0081;1,0056;−0,0020;0,0170;0,0489;−0,0002;−0,0000;−0,0005;
18,150461;−0,0088;0,0068;1,0061;−0,0020;0,0170;0,0489;−0,0002;−0,0000;−0,0005;
18,151985;−0,0088;0,0068;1,0061;−0,0020;0,0170;0,0489;0,0004;−0,0006;0,0002;
18,152685;−0,0088;0,0068;1,0061;0,0148;0,0052;0,0537;0,0004;−0,0006;0,0002;
18,212796;−0,0115;0,0059;1,0078;0,0148;0,0052;0,0537;0,0004;−0,0006;0,0002;
18,214178;−0,0115;0,0059;1,0078;0,0148;0,0052;0,0537;−0,0002;−0,0006;0,0002;
18,214909;−0,0115;0,0059;1,0078;−0,0118;−0,0046;0,0704;−0,0002;−0,0006;0,0002;
18,270752;−0,0115;0,0086;1,0073;−0,0118;−0,0046;0,0704;−0,0002;−0,0006;0,0002;
18,272087;−0,0115;0,0086;1,0073;−0,0118;−0,0046;0,0704;−0,0002;−0,0000;0,0002;
18,272778;−0,0115;0,0086;1,0073;−0,0121;0,0220;0,0657;−0,0002;−0,0000;0,0002;
18,338128;−0,0103;0,0083;1,0088;−0,0121;0,0220;0,0657;−0,0002;−0,0000;0,0002;
18,339326;−0,0103;0,0083;1,0088;−0,0121;0,0220;0,0657;0,0004;0,0006;0,0008;
18,339925;−0,0103;0,0083;1,0088;−0,0002;0,0196;0,0800;0,0004;0,0006;0,0008;
18,390597;−0,0115;0,0083;1,0080;−0,0002;0,0196;0,0800;0,0004;0,0006;0,0008;
18,391937;−0,0115;0,0083;1,0080;−0,0002;0,0196;0,0800;−0,0008;−0,0000;−0,0011;
18,392619;−0,0115;0,0083;1,0080;−0,0121;0,0192;0,0728;−0,0008;−0,0000;−0,0011;
18,454487;−0,0100;0,0061;1,0071;−0,0121;0,0192;0,0728;−0,0008;−0,0000;−0,0011;
18,455822;−0,0100;0,0061;1,0071;−0,0121;0,0192;0,0728;−0,0015;−0,0006;−0,0005;
18,456533;−0,0100;0,0061;1,0071;0,0022;−0,0024;0,0633;−0,0015;−0,0006;−0,0005;
18,510734;−0,0105;0,0073;1,0080;0,0022;−0,0024;0,0633;−0,0015;−0,0006;−0,0005;
18,512033;−0,0105;0,0073;1,0080;0,0022;−0,0024;0,0633;−0,0002;−0,0006;0,0002;
18,512692;−0,0105;0,0073;1,0080;−0,0027;0,0100;0,0728;−0,0002;−0,0006;0,0002;
18,580339;−0,0110;0,0064;1,0073;−0,0027;0,0100;0,0728;−0,0002;−0,0006;0,0002;
18,581642;−0,0110;0,0064;1,0073;−0,0027;0,0100;0,0728;−0,0008;−0,0006;−0,0011;
18,582482;−0,0110;0,0064;1,0073;−0,0077;0,0006;0,0656;−0,0008;−0,0006;−0,0011;
18,629726;−0,0125;0,0056;1,0071;−0,0077;0,0006;0,0656;−0,0008;−0,0006;−0,0011;
18,631084;−0,0125;0,0056;1,0071;−0,0077;0,0006;0,0656;0,0004;0,0006;0,0002;
18,631850;−0,0125;0,0056;1,0071;−0,0219;−0,0062;0,0633;0,0004;0,0006;0,0002;
18,698238;−0,0103;0,0061;1,0085;−0,0219;−0,0062;0,0633;0,0004;0,0006;0,0002;
18,699511;−0,0103;0,0061;1,0085;−0,0219;−0,0062;0,0633;0,0016;0,0018;0,0008;
18,700263;−0,0103;0,0061;1,0085;−0,0003;−0,0014;0,0776;0,0016;0,0018;0,0008;
18,748873;−0,0120;0,0054;1,0078;−0,0003;−0,0014;0,0776;0,0016;0,0018;0,0008;
18,750247;−0,0120;0,0054;1,0078;−0,0003;−0,0014;0,0776;0,0004;0,0012;0,0008;
18,750954;−0,0120;0,0054;1,0078;−0,0169;−0,0091;0,0704;0,0004;0,0012;0,0008;
18,813006;−0,0110;0,0083;1,0063;−0,0169;−0,0091;0,0704;0,0004;0,0012;0,0008;
18,814416;−0,0110;0,0083;1,0063;−0,0169;−0,0091;0,0704;0,0010;−0,0012;0,0008;
18,815138;−0,0110;0,0083;1,0063;−0,0071;0,0195;0,0561;0,0010;−0,0012;0,0008;
18,870160;−0,0112;0,0083;1,0083;−0,0071;0,0195;0,0561;0,0010;−0,0012;0,0008;
18,871468;−0,0112;0,0083;1,0083;−0,0071;0,0195;0,0561;0,0004;−0,0000;0,0014;
18,872178;−0,0112;0,0083;1,0083;−0,0096;0,0195;0,0752;0,0004;−0,0000;0,0014;
18,938615;−0,0105;0,0059;1,0056;−0,0096;0,0195;0,0752;0,0004;−0,0000;0,0014;
18,939906;−0,0105;0,0059;1,0056;−0,0096;0,0195;0,0752;0,0004;0,0006;0,0008;
18,940634;−0,0105;0,0059;1,0056;−0,0024;−0,0046;0,0489;0,0004;0,0006;0,0008;
18,990316;−0,0110;0,0068;1,0080;−0,0024;−0,0046;0,0489;0,0004;0,0006;0,0008;
18,991559;−0,0110;0,0068;1,0080;−0,0024;−0,0046;0,0489;−0,0015;−0,0000;0,0002;
18,992317;−0,0110;0,0068;1,0080;−0,0074;0,0051;0,0728;−0,0015;−0,0000;0,0002;
19,053583;−0,0090;0,0068;1,0075;−0,0074;0,0051;0,0728;−0,0015;−0,0000;0,0002;
19,055017;−0,0090;0,0068;1,0075;−0,0074;0,0051;0,0728;−0,0002;−0,0006;0,0008;
19,055758;−0,0090;0,0068;1,0075;0,0117;0,0050;0,0680;−0,0002;−0,0006;0,0008;
19,108777;−0,0110;0,0068;1,0080;0,0117;0,0050;0,0680;−0,0002;−0,0006;0,0008;
19,110378;−0,0110;0,0068;1,0080;0,0117;0,0050;0,0680;0,0004;0,0006;0,0002;
19,111097;−0,0110;0,0068;1,0080;−0,0075;0,0053;0,0728;0,0004;0,0006;0,0002;
19,182985;−0,0115;0,0066;1,0078;−0,0075;0,0053;0,0728;0,0004;0,0006;0,0002;
19,184204;−0,0115;0,0066;1,0078;−0,0075;0,0053;0,0728;−0,0008;−0,0006;0,0014;
19,184893;−0,0115;0,0066;1,0078;−0,0122;0,0029;0,0704;−0,0008;−0,0006;0,0014;
19,230761;−0,0112;0,0076;1,0075;−0,0122;0,0029;0,0704;−0,0008;−0,0006;0,0014;
19,232092;−0,0112;0,0076;1,0075;−0,0122;0,0029;0,0704;−0,0002;−0,0000;0,0002;
19,233302;−0,0112;0,0076;1,0075;−0,0100;0,0126;0,0680;−0,0002;−0,0000;0,0002;
19,297783;−0,0105;0,0068;1,0085;−0,0100;0,0126;0,0680;−0,0002;−0,0000;0,0002;
19,299377;−0,0105;0,0068;1,0085;−0,0100;0,0126;0,0680;−0,0008;0,0006;0,0002;
19,300056;−0,0105;0,0068;1,0085;−0,0031;0,0054;0,0776;−0,0008;0,0006;0,0002;
19,351265;−0,0115;0,0076;1,0061;−0,0031;0,0054;0,0776;−0,0008;0,0006;0,0002;
19,352645;−0,0115;0,0076;1,0061;−0,0031;0,0054;0,0776;−0,0015;−0,0006;0,0002;
19,353336;−0,0115;0,0076;1,0061;−0,0126;0,0127;0,0537;−0,0015;−0,0006;0,0002;
19,412493;−0,0122;0,0071;1,0058;−0,0126;0,0127;0,0537;−0,0015;−0,0006;0,0002;
19,413749;−0,0122;0,0071;1,0058;−0,0126;0,0127;0,0537;−0,0015;−0,0006;0,0002;
19,414664;−0,0122;0,0071;1,0058;−0,0201;0,0081;0,0513;−0,0015;−0,0006;0,0002;
19,468095;−0,0100;0,0064;1,0066;−0,0201;0,0081;0,0513;−0,0015;−0,0006;0,0002;
19,469415;−0,0100;0,0064;1,0066;−0,0201;0,0081;0,0513;−0,0015;0,0006;0,0008;
19,470254;−0,0100;0,0064;1,0066;0,0013;0,0012;0,0585;−0,0015;0,0006;0,0008;
19,537609;−0,0129;0,0071;1,0071;0,0013;0,0012;0,0585;−0,0015;0,0006;0,0008;
19,538970;−0,0129;0,0071;1,0071;0,0013;0,0012;0,0585;−0,0008;−0,0000;0,0002;
19,539733;−0,0129;0,0071;1,0071;−0,0273;0,0084;0,0632;−0,0008;−0,0000;0,0002;
19,590727;−0,0125;0,0051;1,0083;−0,0273;0,0084;0,0632;−0,0008;−0,0000;0,0002;
19,592092;−0,0125;0,0051;1,0083;−0,0273;0,0084;0,0632;−0,0008;−0,0006;0,0008;
19,592773;−0,0125;0,0051;1,0083;−0,0225;−0,0108;0,0752;−0,0008;−0,0006;0,0008;
19,654583;−0,0115;0,0059;1,0075;−0,0225;−0,0108;0,0752;−0,0008;−0,0006;0,0008;
19,655879;−0,0115;0,0059;1,0075;−0,0225;−0,0108;0,0752;0,0004;−0,0000;−0,0005;
19,656590;−0,0115;0,0059;1,0075;−0,0130;−0,0035;0,0680;0,0004;−0,0000;−0,0005;
19,710599;−0,0115;0,0064;1,0071;−0,0130;−0,0035;0,0680;0,0004;−0,0000;−0,0005;
19,711848;−0,0115;0,0064;1,0071;−0,0130;−0,0035;0,0680;0,0004;−0,0000;−0,0005;
19,712508;−0,0115;0,0064;1,0071;−0,0131;0,0013;0,0632;0,0004;−0,0000;−0,0005;
19,780384;−0,0117;0,0064;1,0063;−0,0131;0,0013;0,0632;0,0004;−0,0000;−0,0005;
19,781731;−0,0117;0,0064;1,0063;−0,0131;0,0013;0,0632;−0,0002;−0,0000;0,0002;
19,782575;−0,0117;0,0064;1,0063;−0,0154;0,0013;0,0561;−0,0002;−0,0000;0,0002;
19,829386;−0,0105;0,0071;1,0083;−0,0154;0,0013;0,0561;−0,0002;−0,0000;0,0002;
19,830818;−0,0105;0,0071;1,0083;−0,0154;0,0013;0,0561;−0,0008;−0,0000;0,0002;
19,831529;−0,0105;0,0071;1,0083;−0,0035;0,0085;0,0752;−0,0008;−0,0000;0,0002;
19,898375;−0,0095;0,0073;1,0061;−0,0035;0,0085;0,0752;−0,0008;−0,0000;0,0002;
19,899619;−0,0095;0,0073;1,0061;−0,0035;0,0085;0,0752;0,0010;0,0006;0,0002;
19,900386;−0,0095;0,0073;1,0061;0,0063;0,0110;0,0537;0,0010;0,0006;0,0002;
19,951595;−0,0103;0,0093;1,0061;0,0063;0,0110;0,0537;0,0010;0,0006;0,0002;
19,952859;−0,0103;0,0093;1,0061;0,0063;0,0110;0,0537;0,0010;−0,0000;0,0002;
19,953564;−0,0103;0,0093;1,0061;−0,0007;0,0299;0,0537;0,0010;−0,0000;0,0002;
20,013689;−0,0112;0,0076;1,0078;−0,0007;0,0299;0,0537;0,0010;−0,0000;0,0002;
20,015109;−0,0112;0,0076;1,0078;−0,0007;0,0299;0,0537;−0,0008;−0,0006;−0,0005;
20,015785;−0,0112;0,0076;1,0078;−0,0099;0,0128;0,0704;−0,0008;−0,0006;−0,0005;
20,069618;−0,0107;0,0066;1,0063;−0,0099;0,0128;0,0704;−0,0008;−0,0006;−0,0005;
20,071041;−0,0107;0,0066;1,0063;−0,0099;0,0128;0,0704;0,0004;−0,0000;−0,0005;
20,071736;−0,0107;0,0066;1,0063;−0,0049;0,0030;0,0561;0,0004;−0,0000;−0,0005;
20,137950;−0,0095;0,0056;1,0073;−0,0049;0,0030;0,0561;0,0004;−0,0000;−0,0005;
20,139199;−0,0095;0,0056;1,0073;−0,0049;0,0030;0,0561;0,0010;0,0012;−0,0005;
20,139853;−0,0095;0,0056;1,0073;0,0071;−0,0066;0,0657;0,0010;0,0012;−0,0005;
20,190296;−0,0095;0,0071;1,0061;0,0071;−0,0066;0,0657;0,0010;0,0012;−0,0005;
20,191564;−0,0095;0,0071;1,0061;0,0071;−0,0066;0,0657;−0,0015;−0,0000;−0,0005;
20,192310;−0,0095;0,0071;1,0061;0,0072;0,0075;0,0537;−0,0015;−0,0000;−0,0005;
20,253399;−0,0127;0,0064;1,0063;0,0072;0,0075;0,0537;−0,0015;−0,0000;−0,0005;
20,254830;−0,0127;0,0064;1,0063;0,0072;0,0075;0,0537;0,0016;0,0006;0,0002;
20,255565;−0,0127;0,0064;1,0063;−0,0237;0,0004;0,0561;0,0016;0,0006;0,0002;
20,310272;−0,0112;0,0071;1,0066;−0,0237;0,0004;0,0561;0,0016;0,0006;0,0002;
20,311573;−0,0112;0,0071;1,0066;−0,0237;0,0004;0,0561;−0,0002;0,0006;−0,0005;
20,312298;−0,0112;0,0071;1,0066;−0,0094;0,0072;0,0585;−0,0002;0,0006;−0,0005;
20,380205;−0,0105;0,0068;1,0054;−0,0094;0,0072;0,0585;−0,0002;0,0006;−0,0005;
20,381632;−0,0105;0,0068;1,0054;−0,0094;0,0072;0,0585;−0,0008;−0,0000;0,0002;
20,382428;−0,0105;0,0068;1,0054;−0,0018;0,0049;0,0465;−0,0008;−0,0000;0,0002;
20,430816;−0,0100;0,0078;1,0073;−0,0018;0,0049;0,0465;−0,0008;−0,0000;0,0002;
20,432154;−0,0100;0,0078;1,0073;−0,0018;0,0049;0,0465;0,0004;−0,0000;−0,0005;
20,432854;−0,0100;0,0078;1,0073;0,0026;0,0146;0,0657;0,0004;−0,0000;−0,0005;
20,497477;−0,0105;0,0073;1,0071;0,0026;0,0146;0,0657;0,0004;−0,0000;−0,0005;
20,498953;−0,0105;0,0073;1,0071;0,0026;0,0146;0,0657;−0,0002;−0,0006;0,0002;
20,499693;−0,0105;0,0073;1,0071;−0,0021;0,0101;0,0633;−0,0002;−0,0006;0,0002;
20,551300;−0,0107;0,0078;1,0071;−0,0021;0,0101;0,0633;−0,0002;−0,0006;0,0002;
20,552619;−0,0107;0,0078;1,0071;−0,0021;0,0101;0,0633;−0,0002;−0,0000;0,0002;
20,553350;−0,0107;0,0078;1,0071;−0,0046;0,0149;0,0633;−0,0002;−0,0000;0,0002;
20,613243;−0,0115;0,0049;1,0068;−0,0046;0,0149;0,0633;−0,0002;−0,0000;0,0002;
20,614722;−0,0115;0,0049;1,0068;−0,0046;0,0149;0,0633;−0,0002;0,0006;0,0014;
20,615468;−0,0115;0,0049;1,0068;−0,0117;−0,0140;0,0609;−0,0002;0,0006;0,0014;
20,670373;−0,0103;0,0078;1,0071;−0,0117;−0,0140;0,0609;−0,0002;0,0006;0,0014;
20,671721;−0,0103;0,0078;1,0071;−0,0117;−0,0140;0,0609;−0,0002;0,0000;0,0008;
20,672393;−0,0103;0,0078;1,0071;0,0004;0,0146;0,0633;−0,0002;0,0000;0,0008;
20,738411;−0,0105;0,0081;1,0071;0,0004;0,0146;0,0633;−0,0002;0,0000;0,0008;
20,739658;−0,0105;0,0081;1,0071;0,0004;0,0146;0,0633;−0,0014;−0,0006;0,0002;
20,740450;−0,0105;0,0081;1,0071;−0,0020;0,0169;0,0633;−0,0014;−0,0006;0,0002;
20,788046;−0,0107;0,0061;1,0063;−0,0020;0,0169;0,0633;−0,0014;−0,0006;0,0002;
20,789282;−0,0107;0,0061;1,0063;−0,0020;0,0169;0,0633;0,0011;0,0006;0,0008;
20,789938;−0,0107;0,0061;1,0063;−0,0042;−0,0021;0,0561;0,0011;0,0006;0,0008;
20,855694;−0,0100;0,0076;1,0068;−0,0042;−0,0021;0,0561;0,0011;0,0006;0,0008;
20,857069;−0,0100;0,0076;1,0068;−0,0042;−0,0021;0,0561;−0,0008;0,0000;−0,0011;
20,857793;−0,0100;0,0076;1,0068;0,0030;0,0122;0,0609;−0,0008;0,0000;−0,0011;
20,908384;−0,0105;0,0073;1,0068;0,0030;0,0122;0,0609;−0,0008;0,0000;−0,0011;
20,909531;−0,0105;0,0073;1,0068;0,0030;0,0122;0,0609;−0,0008;0,0000;−0,0011;
20,910214;−0,0105;0,0073;1,0068;−0,0017;0,0101;0,0609;−0,0008;0,0000;−0,0011;
20,979448;−0,0115;0,0059;1,0068;−0,0017;0,0101;0,0609;−0,0008;0,0000;−0,0011;
20,980780;−0,0115;0,0059;1,0068;−0,0017;0,0101;0,0609;−0,0008;−0,0006;−0,0005;
20,981503;−0,0115;0,0059;1,0068;−0,0115;−0,0044;0,0609;−0,0008;−0,0006;−0,0005;
21,030115;−0,0105;0,0051;1,0083;−0,0115;−0,0044;0,0609;−0,0008;−0,0006;−0,0005;
21,031509;−0,0105;0,0051;1,0083;−0,0115;−0,0044;0,0609;0,0005;0,0000;0,0002;
21,032176;−0,0105;0,0051;1,0083;−0,0018;−0,0115;0,0752;0,0005;0,0000;0,0002;
21,097463;−0,0112;0,0054;1,0088;−0,0018;−0,0115;0,0752;0,0005;0,0000;0,0002;
21,098977;−0,0112;0,0054;1,0088;−0,0018;−0,0115;0,0752;0,0005;−0,0006;0,0002;
21,099914;−0,0112;0,0054;1,0088;−0,0089;−0,0091;0,0800;0,0005;−0,0006;0,0002;
21,148715;−0,0107;0,0068;1,0068;−0,0089;−0,0091;0,0800;0,0005;−0,0006;0,0002;
21,149962;−0,0107;0,0068;1,0068;−0,0089;−0,0091;0,0800;0,0011;0,0000;0,0002;
21,150804;−0,0107;0,0068;1,0068;−0,0043;0,0050;0,0609;0,0011;0,0000;0,0002;
21,212263;−0,0117;0,0064;1,0078;−0,0043;0,0050;0,0609;0,0011;0,0000;0,0002;
21,213601;−0,0117;0,0064;1,0078;−0,0043;0,0050;0,0609;−0,0002;−0,0006;−0,0011;
21,214484;−0,0117;0,0064;1,0078;−0,0136;0,0002;0,0704;−0,0002;−0,0006;−0,0011;
21,271705;−0,0120;0,0071;1,0075;−0,0136;0,0002;0,0704;−0,0002;−0,0006;−0,0011;
21,273196;−0,0120;0,0071;1,0075;−0,0136;0,0002;0,0704;0,0005;0,0000;0,0002;
21,273890;−0,0120;0,0071;1,0075;−0,0157;0,0072;0,0681;0,0005;0,0000;0,0002;
21,338109;−0,0100;0,0073;1,0061;−0,0157;0,0072;0,0681;0,0005;0,0000;0,0002;
21,339326;−0,0100;0,0073;1,0061;−0,0157;0,0072;0,0681;0,0011;0,0006;0,0002;
21,339945;−0,0100;0,0073;1,0061;0,0036;0,0096;0,0537;0,0011;0,0006;0,0002;
21,390419;−0,0110;0,0071;1,0071;0,0036;0,0096;0,0537;0,0011;0,0006;0,0002;
21,391731;−0,0110;0,0071;1,0071;0,0036;0,0096;0,0537;−0,0002;0,0012;0,0020;
21,392609;−0,0110;0,0071;1,0071;−0,0057;0,0069;0,0633;−0,0002;0,0012;0,0020;
21,453597;−0,0117;0,0056;1,0071;−0,0057;0,0069;0,0633;−0,0002;0,0012;0,0020;
21,455078;−0,0117;0,0056;1,0071;−0,0057;0,0069;0,0633;−0,0002;0,0000;−0,0011;
21,455833;−0,0117;0,0056;1,0071;−0,0127;−0,0074;0,0633;−0,0002;0,0000;−0,0011;
21,509677;−0,0117;0,0073;1,0063;−0,0127;−0,0074;0,0633;−0,0002;0,0000;−0,0011;
21,511260;−0,0117;0,0073;1,0063;−0,0127;−0,0074;0,0633;−0,0008;−0,0012;0,0002;
21,511935;−0,0117;0,0073;1,0063;−0,0125;0,0094;0,0561;−0,0008;−0,0012;0,0002;
21,580626;−0,0088;0,0068;1,0078;−0,0125;0,0094;0,0561;−0,0008;−0,0012;0,0002;
21,581868;−0,0088;0,0068;1,0078;−0,0125;0,0094;0,0561;−0,0014;0,0000;−0,0005;
21,582715;−0,0088;0,0068;1,0078;0,0160;0,0048;0,0705;−0,0014;0,0000;−0,0005;
21,629929;−0,0115;0,0051;1,0068;0,0160;0,0048;0,0705;−0,0014;0,0000;−0,0005;
21,631318;−0,0115;0,0051;1,0068;0,0160;0,0048;0,0705;−0,0008;0,0000;−0,0005;
21,632019;−0,0115;0,0051;1,0068;−0,0103;−0,0116;0,0609;−0,0008;0,0000;−0,0005;
21,697752;−0,0107;0,0071;1,0068;−0,0103;−0,0116;0,0609;−0,0008;0,0000;−0,0005;
21,699157;−0,0107;0,0071;1,0068;−0,0103;−0,0116;0,0609;0,0005;0,0000;0,0002;
21,699881;−0,0107;0,0071;1,0068;−0,0031;0,0076;0,0609;0,0005;0,0000;0,0002;
21,749643;−0,0125;0,0078;1,0088;−0,0031;0,0076;0,0609;0,0005;0,0000;0,0002;
21,751025;−0,0125;0,0078;1,0088;−0,0031;0,0076;0,0609;−0,0008;0,0006;0,0014;
21,751725;−0,0125;0,0078;1,0088;−0,0198;0,0147;0,0800;−0,0008;0,0006;0,0014;
21,812036;−0,0100;0,0066;1,0073;−0,0198;0,0147;0,0800;−0,0008;0,0006;0,0014;
21,813309;−0,0100;0,0066;1,0073;−0,0198;0,0147;0,0800;0,0005;0,0000;−0,0005;
21,813960;−0,0100;0,0066;1,0073;0,0041;0,0030;0,0657;0,0005;0,0000;−0,0005;
21,871158;−0,0107;0,0071;1,0071;0,0041;0,0030;0,0657;0,0005;0,0000;−0,0005;
21,872530;−0,0107;0,0071;1,0071;0,0041;0,0030;0,0657;0,0005;0,0006;−0,0011;
21,873250;−0,0107;0,0071;1,0071;−0,0031;0,0081;0,0633;0,0005;0,0006;−0,0011;
21,937597;−0,0100;0,0068;1,0093;−0,0031;0,0081;0,0633;0,0005;0,0006;−0,0011;
21,938998;−0,0100;0,0068;1,0093;−0,0031;0,0081;0,0633;−0,0008;−0,0006;0,0008;
21,939697;−0,0100;0,0068;1,0093;0,0040;0,0058;0,0848;−0,0008;−0,0006;0,0008;
21,988642;−0,0105;0,0068;1,0066;0,0040;0,0058;0,0848;−0,0008;−0,0006;0,0008;
21,989956;−0,0105;0,0068;1,0066;0,0040;0,0058;0,0848;−0,0002;0,0000;0,0002;
21,990764;−0,0105;0,0068;1,0066;−0,0006;0,0060;0,0585;−0,0002;0,0000;0,0002;
22,054902;−0,0129;0,0068;1,0083;−0,0006;0,0060;0,0585;−0,0002;0,0000;0,0002;
22,056174;−0,0129;0,0068;1,0083;−0,0006;0,0060;0,0585;−0,0002;−0,0006;0,0002;
22,056884;−0,0129;0,0068;1,0083;−0,0246;0,0058;0,0752;−0,0002;−0,0006;0,0002;
22,110191;−0,0088;0,0073;1,0068;−0,0246;0,0058;0,0752;−0,0002;−0,0006;0,0002;
22,111943;−0,0088;0,0073;1,0068;−0,0246;0,0058;0,0752;−0,0002;−0,0006;0,0002;
22,112623;−0,0088;0,0073;1,0068;0,0161;0,0105;0,0609;−0,0002;−0,0006;0,0002;
22,181138;−0,0103;0,0078;1,0088;0,0161;0,0105;0,0609;−0,0002;−0,0006;0,0002;
22,182590;−0,0103;0,0078;1,0088;0,0161;0,0105;0,0609;0,0011;0,0006;−0,0005;
22,183352;−0,0103;0,0078;1,0088;0,0018;0,0154;0,0800;0,0011;0,0006;−0,0005;
22,228511;−0,0127;0,0061;1,0071;0,0018;0,0154;0,0800;0,0011;0,0006;−0,0005;
22,229904;−0,0127;0,0061;1,0071;0,0018;0,0154;0,0800;−0,0008;−0,0006;0,0002;
22,230711;−0,0127;0,0061;1,0071;−0,0222;−0,0013;0,0633;−0,0008;−0,0006;0,0002;
22,298734;−0,0107;0,0061;1,0085;−0,0222;−0,0013;0,0633;−0,0008;−0,0006;0,0002;
22,300065;−0,0107;0,0061;1,0085;−0,0222;−0,0013;0,0633;−0,0008;0,0006;0,0008;
22,300770;−0,0107;0,0061;1,0085;−0,0029;−0,0014;0,0776;−0,0008;0,0006;0,0008;
22,349158;−0,0110;0,0059;1,0073;−0,0029;−0,0014;0,0776;−0,0008;0,0006;0,0008;
22,350562;−0,0110;0,0059;1,0073;−0,0029;−0,0014;0,0776;0,0011;−0,0012;−0,0017;
22,351240;−0,0110;0,0059;1,0073;−0,0052;−0,0037;0,0657;0,0011;−0,0012;−0,0017;
22,410824;−0,0098;0,0076;1,0058;−0,0052;−0,0037;0,0657;0,0011;−0,0012;−0,0017;
22,411742;−0,0098;0,0076;1,0058;−0,0052;−0,0037;0,0657;−0,0008;−0,0012;0,0002;
22,412196;−0,0098;0,0076;1,0058;0,0067;0,0130;0,0513;−0,0008;−0,0012;0,0002;
22,470513;−0,0120;0,0059;1,0061;0,0067;0,0130;0,0513;−0,0008;−0,0012;0,0002;
22,471894;−0,0120;0,0059;1,0061;0,0067;0,0130;0,0513;0,0005;−0,0006;−0,0005;
22,472608;−0,0120;0,0059;1,0061;−0,0147;−0,0040;0,0537;0,0005;−0,0006;−0,0005;
22,537242;−0,0088;0,0061;1,0066;−0,0147;−0,0040;0,0537;0,0005;−0,0006;−0,0005;
22,538688;−0,0088;0,0061;1,0066;−0,0147;−0,0040;0,0537;−0,0002;0,0006;−0,0005;
22,539352;−0,0088;0,0061;1,0066;0,0162;−0,0017;0,0585;−0,0002;0,0006;−0,0005;
22,589686;−0,0110;0,0059;1,0063;0,0162;−0,0017;0,0585;−0,0002;0,0006;−0,0005;
22,591139;−0,0110;0,0059;1,0063;0,0162;−0,0017;0,0585;0,0005;0,0006;−0,0011;
22,591831;−0,0110;0,0059;1,0063;−0,0052;−0,0043;0,0561;0,0005;0,0006;−0,0011;
22,653587;−0,0100;0,0059;1,0058;−0,0052;−0,0043;0,0561;0,0005;0,0006;−0,0011;
22,654981;−0,0100;0,0059;1,0058;−0,0052;−0,0043;0,0561;−0,0002;−0,0006;0,0002;
22,655700;−0,0100;0,0059;1,0058;0,0045;−0,0042;0,0513;−0,0002;−0,0006;0,0002;
22,710610;−0,0115;0,0078;1,0068;0,0045;−0,0042;0,0513;−0,0002;−0,0006;0,0002;
22,711887;−0,0115;0,0078;1,0068;0,0045;−0,0042;0,0513;0,0005;0,0000;0,0002;
22,712587;−0,0115;0,0078;1,0068;−0,0098;0,0147;0,0609;0,0005;0,0000;0,0002;
22,782457;−0,0103;0,0034;1,0063;−0,0098;0,0147;0,0609;0,0005;0,0000;0,0002;
22,783767;−0,0103;0,0034;1,0063;−0,0098;0,0147;0,0609;0,0011;0,0012;0,0002;
22,784458;−0,0103;0,0034;1,0063;0,0023;−0,0289;0,0561;0,0011;0,0012;0,0002;
22,829499;−0,0105;0,0071;1,0078;0,0023;−0,0289;0,0561;0,0011;0,0012;0,0002;
22,830880;−0,0105;0,0071;1,0078;0,0023;−0,0289;0,0561;−0,0008;0,0000;−0,0017;
22,831526;−0,0105;0,0071;1,0078;0,0000;0,0072;0,0705;−0,0008;0,0000;−0,0017;
22,898211;−0,0112;0,0076;1,0073;0,0000;0,0072;0,0705;−0,0008;0,0000;−0,0017;
22,899507;−0,0112;0,0076;1,0073;0,0000;0,0072;0,0705;−0,0002;0,0000;0,0008;
22,900209;−0,0112;0,0076;1,0073;−0,0070;0,0119;0,0657;−0,0002;0,0000;0,0008;
22,950525;−0,0110;0,0059;1,0071;−0,0070;0,0119;0,0657;−0,0002;0,0000;0,0008;
22,951836;−0,0110;0,0059;1,0071;−0,0070;0,0119;0,0657;−0,0020;−0,0006;0,0002;
22,952675;−0,0110;0,0059;1,0071;−0,0045;−0,0049;0,0633;−0,0020;−0,0006;0,0002;
23,014111;−0,0100;0,0061;1,0073;−0,0045;−0,0049;0,0633;−0,0020;−0,0006;0,0002;
23,015359;−0,0100;0,0061;1,0073;−0,0045;−0,0049;0,0633;0,0005;0,0000;−0,0005;
23,016024;−0,0100;0,0061;1,0073;0,0050;−0,0023;0,0657;0,0005;0,0000;−0,0005;
23,068864;−0,0112;0,0071;1,0090;0,0050;−0,0023;0,0657;0,0005;0,0000;−0,0005;
23,070260;−0,0112;0,0071;1,0090;0,0050;−0,0023;0,0657;0,0005;0,0000;−0,0011;
23,070982;−0,0112;0,0071;1,0090;−0,0069;0,0070;0,0824;0,0005;0,0000;−0,0011;
23,137728;−0,0110;0,0073;1,0073;−0,0069;0,0070;0,0824;0,0005;0,0000;−0,0011;
23,139138;−0,0110;0,0073;1,0073;−0,0069;0,0070;0,0824;−0,0002;0,0006;0,0002;
23,139857;−0,0110;0,0073;1,0073;−0,0046;0,0093;0,0657;−0,0002;0,0006;0,0002;
23,190658;−0,0117;0,0054;1,0083;−0,0046;0,0093;0,0657;−0,0002;0,0006;0,0002;
23,191875;−0,0117;0,0054;1,0083;−0,0046;0,0093;0,0657;0,0011;0,0000;−0,0005;
23,192564;−0,0117;0,0054;1,0083;−0,0118;−0,0097;0,0753;0,0011;0,0000;−0,0005;
23,254112;−0,0105;0,0059;1,0068;−0,0118;−0,0097;0,0753;0,0011;0,0000;−0,0005;
23,255457;−0,0105;0,0059;1,0068;−0,0118;−0,0097;0,0753;0,0005;0,0000;0,0002;
23,256133;−0,0105;0,0059;1,0068;0,0002;−0,0050;0,0609;0,0005;0,0000;0,0002;
23,309558;−0,0122;0,0068;1,0073;0,0002;−0,0050;0,0609;0,0005;0,0000;0,0002;
23,310958;−0,0122;0,0068;1,0073;0,0002;−0,0050;0,0609;−0,0008;−0,0006;0,0002;
23,311676;−0,0122;0,0068;1,0073;−0,0164;0,0046;0,0657;−0,0008;−0,0006;0,0002;
23,378504;−0,0115;0,0066;1,0066;−0,0164;0,0046;0,0657;−0,0008;−0,0006;0,0002;
23,379725;−0,0115;0,0066;1,0066;−0,0164;0,0046;0,0657;0,0011;0,0006;0,0014;
23,380453;−0,0115;0,0066;1,0066;−0,0093;0,0021;0,0585;0,0011;0,0006;0,0014;
23,428970;−0,0105;0,0071;1,0054;−0,0093;0,0021;0,0585;0,0011;0,0006;0,0014;
23,429784;−0,0105;0,0071;1,0054;−0,0093;0,0021;0,0585;0,0005;0,0006;−0,0005;
23,430545;−0,0105;0,0071;1,0054;0,0002;0,0069;0,0465;0,0005;0,0006;−0,0005;
23,498479;−0,0120;0,0076;1,0063;0,0002;0,0069;0,0465;0,0005;0,0006;−0,0005;
23,499706;−0,0120;0,0076;1,0063;0,0002;0,0069;0,0465;0,0005;0,0000;0,0008;
23,500406;−0,0120;0,0076;1,0063;−0,0139;0,0115;0,0561;0,0005;0,0000;0,0008;
23,550351;−0,0090;0,0076;1,0088;−0,0139;0,0115;0,0561;0,0005;0,0000;0,0008;
23,551589;−0,0090;0,0076;1,0088;−0,0139;0,0115;0,0561;−0,0014;0,0000;0,0008;
23,552302;−0,0090;0,0076;1,0088;0,0148;0,0114;0,0801;−0,0014;0,0000;0,0008;
23,612730;−0,0107;0,0073;1,0071;0,0148;0,0114;0,0801;−0,0014;0,0000;0,0008;
23,613995;−0,0107;0,0073;1,0071;0,0148;0,0114;0,0801;0,0005;0,0000;−0,0005;
23,614780;−0,0107;0,0073;1,0071;−0,0021;0,0093;0,0633;0,0005;0,0000;−0,0005;
23,669302;−0,0120;0,0068;1,0080;−0,0021;0,0093;0,0633;0,0005;0,0000;−0,0005;
23,670798;−0,0120;0,0068;1,0080;−0,0021;0,0093;0,0633;−0,0008;−0,0006;0,0002;
23,671491;−0,0120;0,0068;1,0080;−0,0140;0,0044;0,0729;−0,0008;−0,0006;0,0002;
23,738448;−0,0112;0,0078;1,0073;−0,0140;0,0044;0,0729;−0,0008;−0,0006;0,0002;
23,739858;−0,0112;0,0078;1,0073;−0,0140;0,0044;0,0729;0,0005;−0,0006;0,0002;
23,740595;−0,0112;0,0078;1,0073;−0,0069;0,0140;0,0657;0,0005;−0,0006;0,0002;
23,789430;−0,0100;0,0071;1,0073;−0,0069;0,0140;0,0657;0,0005;−0,0006;0,0002;
23,790843;−0,0100;0,0071;1,0073;−0,0069;0,0140;0,0657;−0,0002;0,0000;0,0002;
23,791563;−0,0100;0,0071;1,0073;0,0049;0,0067;0,0657;−0,0002;0,0000;0,0002;
23,854279;−0,0112;0,0061;1,0073;0,0049;0,0067;0,0657;−0,0002;0,0000;0,0002;
23,855251;−0,0112;0,0061;1,0073;0,0049;0,0067;0,0657;0,0005;−0,0006;0,0008;
23,855756;−0,0112;0,0061;1,0073;−0,0069;−0,0030;0,0657;0,0005;−0,0006;0,0008;
23,910496;−0,0107;0,0059;1,0075;−0,0069;−0,0030;0,0657;0,0005;−0,0006;0,0008;
23,911820;−0,0107;0,0059;1,0075;−0,0069;−0,0030;0,0657;−0,0008;−0,0006;−0,0005;
23,912546;−0,0107;0,0059;1,0075;−0,0022;−0,0054;0,0681;−0,0008;−0,0006;−0,0005;
23,979670;−0,0098;0,0059;1,0058;−0,0022;−0,0054;0,0681;−0,0008;−0,0006;−0,0005;
23,981023;−0,0098;0,0059;1,0058;−0,0022;−0,0054;0,0681;0,0005;0,0006;−0,0005;
23,981737;−0,0098;0,0059;1,0058;0,0074;−0,0054;0,0513;0,0005;0,0006;−0,0005;
24,029619;−0,0107;0,0066;1,0078;0,0074;−0,0054;0,0513;0,0005;0,0006;−0,0005;
24,030956;−0,0107;0,0066;1,0078;0,0074;−0,0054;0,0513;0,0005;0,0006;0,0008;
24,031600;−0,0107;0,0066;1,0078;−0,0019;0,0017;0,0705;0,0005;0,0006;0,0008;
24,096608;−0,0095;0,0086;1,0075;−0,0019;0,0017;0,0705;0,0005;0,0006;0,0008;
24,097743;−0,0095;0,0086;1,0075;−0,0019;0,0017;0,0705;0,0011;0,0006;0,0002;
24,098891;−0,0095;0,0086;1,0075;0,0103;0,0206;0,0681;0,0011;0,0006;0,0002;
24,149635;−0,0105;0,0073;1,0061;0,0103;0,0206;0,0681;0,0011;0,0006;0,0002;
24,151036;−0,0105;0,0073;1,0061;0,0103;0,0206;0,0681;−0,0002;0,0006;−0,0011;
24,151676;−0,0105;0,0073;1,0061;0,0009;0,0088;0,0537;−0,0002;0,0006;−0,0011;
24,212560;−0,0115;0,0078;1,0056;0,0009;0,0088;0,0537;−0,0002;0,0006;−0,0011;
24,213821;−0,0115;0,0078;1,0056;0,0009;0,0088;0,0537;−0,0008;0,0000;−0,0005;
24,214651;−0,0115;0,0078;1,0056;−0,0084;0,0136;0,0489;−0,0008;0,0000;−0,0005;
24,269005;−0,0117;0,0054;1,0058;−0,0084;0,0136;0,0489;−0,0008;0,0000;−0,0005;
24,270462;−0,0117;0,0054;1,0058;−0,0084;0,0136;0,0489;−0,0002;0,0000;0,0002;
24,271143;−0,0117;0,0054;1,0058;−0,0109;−0,0101;0,0513;−0,0002;0,0000;0,0002;
24,337044;−0,0110;0,0068;1,0071;−0,0109;−0,0101;0,0513;−0,0002;0,0000;0,0002;
24,338461;−0,0110;0,0068;1,0071;−0,0109;−0,0101;0,0513;0,0011;0,0006;−0,0011;
24,339328;−0,0110;0,0068;1,0071;−0,0035;0,0042;0,0633;0,0011;0,0006;−0,0011;
24,389205;−0,0120;0,0071;1,0061;−0,0035;0,0042;0,0633;0,0011;0,0006;−0,0011;
24,390488;−0,0120;0,0071;1,0061;−0,0035;0,0042;0,0633;−0,0002;0,0000;0,0008;
24,391017;−0,0120;0,0071;1,0061;−0,0129;0,0064;0,0537;−0,0002;0,0000;0,0008;
24,453535;−0,0090;0,0064;1,0085;−0,0129;0,0064;0,0537;−0,0002;0,0000;0,0008;
24,454879;−0,0090;0,0064;1,0085;−0,0129;0,0064;0,0537;0,0005;0,0000;0,0002;
24,455605;−0,0090;0,0064;1,0085;0,0159;−0,0008;0,0777;0,0005;0,0000;0,0002;
24,510114;−0,0086;0,0068;1,0068;0,0159;−0,0008;0,0777;0,0005;0,0000;0,0002;
24,511411;−0,0086;0,0068;1,0068;0,0159;−0,0008;0,0777;−0,0008;−0,0006;0,0008;
24,512149;−0,0086;0,0068;1,0068;0,0205;0,0042;0,0609;−0,0008;−0,0006;0,0008;
24,579922;−0,0115;0,0078;1,0080;0,0205;0,0042;0,0609;−0,0008;−0,0006;0,0008;
24,581271;−0,0115;0,0078;1,0080;0,0205;0,0042;0,0609;0,0005;0,0006;0,0002;
24,582106;−0,0115;0,0078;1,0080;−0,0082;0,0140;0,0729;0,0005;0,0006;0,0002;
24,630220;−0,0110;0,0073;1,0071;−0,0082;0,0140;0,0729;0,0005;0,0006;0,0002;
24,631368;−0,0110;0,0073;1,0071;−0,0082;0,0140;0,0729;−0,0002;0,0006;0,0002;
24,632061;−0,0110;0,0073;1,0071;−0,0034;0,0094;0,0633;−0,0002;0,0006;0,0002;
24,698509;−0,0110;0,0078;1,0075;−0,0034;0,0094;0,0633;−0,0002;0,0006;0,0002;
24,699746;−0,0110;0,0078;1,0075;−0,0034;0,0094;0,0633;−0,0007;0,0000;0,0002;
24,700398;−0,0110;0,0078;1,0075;−0,0033;0,0139;0,0681;−0,0007;0,0000;0,0002;
24,750504;−0,0122;0,0064;1,0066;−0,0033;0,0139;0,0681;−0,0007;0,0000;0,0002;
24,751719;−0,0122;0,0064;1,0066;−0,0033;0,0139;0,0681;0,0005;0,0006;0,0008;
24,752407;−0,0122;0,0064;1,0066;−0,0154;−0,0006;0,0585;0,0005;0,0006;0,0008;
24,813716;−0,0100;0,0076;1,0080;−0,0154;−0,0006;0,0585;0,0005;0,0006;0,0008;
24,815138;−0,0100;0,0076;1,0080;−0,0154;−0,0006;0,0585;0,0005;0,0000;−0,0005;
24,815824;−0,0100;0,0076;1,0080;0,0062;0,0112;0,0729;0,0005;0,0000;−0,0005;
24,870374;−0,0107;0,0073;1,0080;0,0062;0,0112;0,0729;0,0005;0,0000;−0,0005;
24,871485;−0,0107;0,0073;1,0080;0,0062;0,0112;0,0729;0,0005;0,0006;0,0002;
24,872101;−0,0107;0,0073;1,0080;−0,0005;0,0084;0,0729;0,0005;0,0006;0,0002;
24,939316;−0,0122;0,0068;1,0078;−0,0005;0,0084;0,0729;0,0005;0,0006;0,0002;
24,940595;−0,0122;0,0068;1,0078;−0,0005;0,0084;0,0729;0,0005;−0,0006;−0,0005;
24,941309;−0,0122;0,0068;1,0078;−0,0151;0,0035;0,0705;0,0005;−0,0006;−0,0005;
24,988659;−0,0117;0,0066;1,0061;−0,0151;0,0035;0,0705;0,0005;−0,0006;−0,0005;
24,989862;−0,0117;0,0066;1,0061;−0,0151;0,0035;0,0705;−0,0007;0,0000;0,0002;
24,990741;−0,0117;0,0066;1,0061;−0,0104;0,0011;0,0537;−0,0007;0,0000;0,0002;
25,054100;−0,0115;0,0066;1,0078;−0,0104;0,0011;0,0537;−0,0007;0,0000;0,0002;
25,055463;−0,0115;0,0066;1,0078;−0,0104;0,0011;0,0537;−0,0001;−0,0006;0,0002;
25,056178;−0,0115;0,0066;1,0078;−0,0079;0,0010;0,0705;−0,0001;−0,0006;0,0002;
25,111307;−0,0103;0,0066;1,0056;−0,0079;0,0010;0,0705;−0,0001;−0,0006;0,0002;
25,112767;−0,0103;0,0066;1,0056;−0,0079;0,0010;0,0705;0,0011;0,0006;0,0002;
25,113485;−0,0103;0,0066;1,0056;0,0039;0,0012;0,0489;0,0011;0,0006;0,0002;
25,180490;−0,0134;0,0061;1,0080;0,0039;0,0012;0,0489;0,0011;0,0006;0,0002;
25,181821;−0,0134;0,0061;1,0080;0,0039;0,0012;0,0489;−0,0001;0,0006;0,0002;
25,182622;−0,0134;0,0061;1,0080;−0,0273;−0,0036;0,0729;−0,0001;0,0006;0,0002;
25,230413;−0,0095;0,0056;1,0080;−0,0273;−0,0036;0,0729;−0,0001;0,0006;0,0002;
25,231749;−0,0095;0,0056;1,0080;−0,0273;−0,0036;0,0729;−0,0007;−0,0006;0,0002;
25,232470;−0,0095;0,0056;1,0080;0,0110;−0,0082;0,0729;−0,0007;−0,0006;0,0002;
25,296991;−0,0110;0,0078;1,0049;0,0110;−0,0082;0,0729;−0,0007;−0,0006;0,0002;
25,298341;−0,0110;0,0078;1,0049;0,0110;−0,0082;0,0729;0,0005;0,0000;0,0008;
25,299118;−0,0110;0,0078;1,0049;−0,0036;0,0133;0,0418;0,0005;0,0000;0,0008;
25,349833;−0,0127;0,0071;1,0080;−0,0036;0,0133;0,0418;0,0005;0,0000;0,0008;
25,351257;−0,0127;0,0071;1,0080;−0,0036;0,0133;0,0418;0,0005;0,0006;−0,0005;
25,352009;−0,0127;0,0071;1,0080;−0,0204;0,0057;0,0729;0,0005;0,0006;−0,0005;
25,412718;−0,0115;0,0061;1,0056;−0,0204;0,0057;0,0729;0,0005;0,0006;−0,0005;
25,414212;−0,0115;0,0061;1,0056;−0,0204;0,0057;0,0729;−0,0013;−0,0006;0,0002;
25,414952;−0,0115;0,0061;1,0056;−0,0083;−0,0040;0,0489;−0,0013;−0,0006;0,0002;
25,470189;−0,0100;0,0081;1,0061;−0,0083;−0,0040;0,0489;−0,0013;−0,0006;0,0002;
25,471590;−0,0100;0,0081;1,0061;−0,0083;−0,0040;0,0489;0,0005;0,0006;−0,0005;
25,472374;−0,0100;0,0081;1,0061;0,0060;0,0154;0,0537;0,0005;0,0006;−0,0005;
25,537973;−0,0112;0,0054;1,0063;0,0060;0,0154;0,0537;0,0005;0,0006;−0,0005;
25,539510;−0,0112;0,0054;1,0063;0,0060;0,0154;0,0537;−0,0013;0,0000;−0,0011;
25,540217;−0,0112;0,0054;1,0063;−0,0060;−0,0109;0,0561;−0,0013;0,0000;−0,0011;
25,590150;−0,0107;0,0059;1,0088;−0,0060;−0,0109;0,0561;−0,0013;0,0000;−0,0011;
25,591488;−0,0107;0,0059;1,0088;−0,0060;−0,0109;0,0561;0,0005;−0,0006;0,0008;
25,592151;−0,0107;0,0059;1,0088;−0,0015;−0,0059;0,0801;0,0005;−0,0006;0,0008;
25,653852;−0,0112;0,0066;1,0071;−0,0015;−0,0059;0,0801;0,0005;−0,0006;0,0008;
25,655305;−0,0112;0,0066;1,0071;−0,0015;−0,0059;0,0801;0,0005;0,0000;0,0002;
25,656015;−0,0112;0,0066;1,0071;−0,0063;0,0015;0,0633;0,0005;0,0000;0,0002;
25,710687;−0,0110;0,0059;1,0066;−0,0063;0,0015;0,0633;0,0005;0,0000;0,0002;
25,711909;−0,0110;0,0059;1,0066;−0,0063;0,0015;0,0633;−0,0013;0,0006;0,0002;
25,712615;−0,0110;0,0059;1,0066;−0,0040;−0,0057;0,0585;−0,0013;0,0006;0,0002;
25,781460;−0,0112;0,0066;1,0071;−0,0040;−0,0057;0,0585;−0,0013;0,0006;0,0002;
25,782825;−0,0112;0,0066;1,0071;−0,0040;−0,0057;0,0585;−0,0013;−0,0012;−0,0005;
25,783588;−0,0112;0,0066;1,0071;−0,0064;0,0016;0,0633;−0,0013;−0,0012;−0,0005;
25,830815;−0,0093;0,0073;1,0068;−0,0064;0,0016;0,0633;−0,0013;−0,0012;−0,0005;
25,832102;−0,0093;0,0073;1,0068;−0,0064;0,0016;0,0633;−0,0001;−0,0006;0,0008;
25,832813;−0,0093;0,0073;1,0068;0,0125;0,0091;0,0609;−0,0001;−0,0006;0,0008;
25,897983;−0,0120;0,0059;1,0080;0,0125;0,0091;0,0609;−0,0001;−0,0006;0,0008;
25,899396;−0,0120;0,0059;1,0080;0,0125;0,0091;0,0609;−0,0007;0,0000;−0,0005;
25,900061;−0,0120;0,0059;1,0080;−0,0141;−0,0053;0,0729;−0,0007;0,0000;−0,0005;
25,950291;−0,0105;0,0068;1,0075;−0,0141;−0,0053;0,0729;−0,0007;0,0000;−0,0005;
25,951509;−0,0105;0,0068;1,0075;−0,0141;−0,0053;0,0729;−0,0001;0,0000;0,0002;
25,952177;−0,0105;0,0068;1,0075;0,0002;0,0046;0,0681;−0,0001;0,0000;0,0002;
26,013321;−0,0117;0,0073;1,0058;0,0002;0,0046;0,0681;−0,0001;0,0000;0,0002;
26,014719;−0,0117;0,0073;1,0058;0,0002;0,0046;0,0681;0,0024;0,0006;−0,0011;
26,015456;−0,0117;0,0073;1,0058;−0,0118;0,0093;0,0513;0,0024;0,0006;−0,0011;
26,069994;−0,0107;0,0066;1,0063;−0,0118;0,0093;0,0513;0,0024;0,0006;−0,0011;
26,071318;−0,0107;0,0066;1,0063;−0,0118;0,0093;0,0513;0,0005;−0,0012;0,0002;
26,072042;−0,0107;0,0066;1,0063;−0,0020;0,0016;0,0561;0,0005;−0,0012;0,0002;
26,138213;−0,0105;0,0076;1,0068;−0,0020;0,0016;0,0561;0,0005;−0,0012;0,0002;
26,139460;−0,0105;0,0076;1,0068;−0,0020;0,0016;0,0561;−0,0013;0,0000;−0,0011;
26,140132;−0,0105;0,0076;1,0068;0,0004;0,0109;0,0609;−0,0013;0,0000;−0,0011;
26,190568;−0,0105;0,0056;1,0071;0,0004;0,0109;0,0609;−0,0013;0,0000;−0,0011;
26,191908;−0,0105;0,0056;1,0071;0,0004;0,0109;0,0609;0,0005;0,0006;−0,0005;
26,192649;−0,0105;0,0056;1,0071;0,0007;−0,0081;0,0633;0,0005;0,0006;−0,0005;
26,254676;−0,0112;0,0073;1,0063;0,0007;−0,0081;0,0633;0,0005;0,0006;−0,0005;
26,256066;−0,0112;0,0073;1,0063;0,0007;−0,0081;0,0633;0,0005;0,0012;0,0002;
26,256748;−0,0112;0,0073;1,0063;−0,0063;0,0086;0,0561;0,0005;0,0012;0,0002;
26,309458;−0,0105;0,0064;1,0083;−0,0063;0,0086;0,0561;0,0005;0,0012;0,0002;
26,310989;−0,0105;0,0064;1,0083;−0,0063;0,0086;0,0561;0,0011;0,0006;−0,0005;
26,311694;−0,0105;0,0064;1,0083;0,0011;−0,0012;0,0753;0,0011;0,0006;−0,0005;
26,379548;−0,0088;0,0056;1,0063;0,0011;−0,0012;0,0753;0,0011;0,0006;−0,0005;
26,380811;−0,0088;0,0056;1,0063;0,0011;−0,0012;0,0753;0,0011;0,0012;0,0002;
26,381480;−0,0088;0,0056;1,0063;0,0182;−0,0086;0,0561;0,0011;0,0012;0,0002;
26,429762;−0,0093;0,0078;1,0061;0,0182;−0,0086;0,0561;0,0011;0,0012;0,0002;
26,431086;−0,0093;0,0078;1,0061;0,0182;−0,0086;0,0561;0,0005;0,0012;−0,0005;
26,431786;−0,0093;0,0078;1,0061;0,0135;0,0129;0,0537;0,0005;0,0012;−0,0005;
26,498820;−0,0117;0,0076;1,0073;0,0135;0,0129;0,0537;0,0005;0,0012;−0,0005;
26,500151;−0,0117;0,0076;1,0073;0,0135;0,0129;0,0537;−0,0001;0,0012;−0,0005;
26,500873;−0,0117;0,0076;1,0073;−0,0103;0,0103;0,0657;−0,0001;0,0012;−0,0005;
26,549854;−0,0117;0,0073;1,0071;−0,0103;0,0103;0,0657;−0,0001;0,0012;−0,0005;
26,551172;−0,0117;0,0073;1,0071;−0,0103;0,0103;0,0657;−0,0013;−0,0006;−0,0011;
26,551850;−0,0117;0,0073;1,0071;−0,0099;0,0080;0,0633;−0,0013;−0,0006;−0,0011;
26,613110;−0,0095;0,0059;1,0085;−0,0099;0,0080;0,0633;−0,0013;−0,0006;−0,0011;
26,614841;−0,0095;0,0059;1,0085;−0,0099;0,0080;0,0633;0,0005;0,0000;−0,0005;
26,615600;−0,0095;0,0059;1,0085;0,0115;−0,0060;0,0777;0,0005;0,0000;−0,0005;
26,668982;−0,0120;0,0061;1,0063;0,0115;−0,0060;0,0777;0,0005;0,0000;−0,0005;
26,670406;−0,0120;0,0061;1,0063;0,0115;−0,0060;0,0777;0,0011;0,0000;−0,0011;
26,671122;−0,0120;0,0061;1,0063;−0,0125;−0,0038;0,0561;0,0011;0,0000;−0,0011;
26,738797;−0,0120;0,0066;1,0071;−0,0125;−0,0038;0,0561;0,0011;0,0000;−0,0011;
26,740170;−0,0120;0,0066;1,0071;−0,0125;−0,0038;0,0561;0,0005;0,0006;0,0014;
26,740898;−0,0120;0,0066;1,0071;−0,0124;0,0008;0,0633;0,0005;0,0006;0,0014;
26,788152;−0,0110;0,0056;1,0061;−0,0124;0,0008;0,0633;0,0005;0,0006;0,0014;
26,789158;−0,0110;0,0056;1,0061;−0,0124;0,0008;0,0633;−0,0001;0,0000;−0,0005;
26,789672;−0,0110;0,0056;1,0061;−0,0028;−0,0089;0,0537;−0,0001;0,0000;−0,0005;
26,854715;−0,0107;0,0056;1,0073;−0,0028;−0,0089;0,0537;−0,0001;0,0000;−0,0005;
26,856018;−0,0107;0,0056;1,0073;−0,0028;−0,0089;0,0537;0,0005;0,0006;0,0002;
26,856718;−0,0107;0,0056;1,0073;−0,0004;−0,0090;0,0657;0,0005;0,0006;0,0002;
26,911233;−0,0107;0,0049;1,0071;−0,0004;−0,0090;0,0657;0,0005;0,0006;0,0002;
26,912602;−0,0107;0,0049;1,0071;−0,0004;−0,0090;0,0657;−0,0001;0,0000;0,0008;
26,913354;−0,0107;0,0049;1,0071;−0,0004;−0,0163;0,0633;−0,0001;0,0000;0,0008;
26,981004;−0,0115;0,0054;1,0078;−0,0004;−0,0163;0,0633;−0,0001;0,0000;0,0008;
26,982316;−0,0115;0,0054;1,0078;−0,0004;−0,0163;0,0633;0,0005;0,0000;0,0002;
26,983073;−0,0115;0,0054;1,0078;−0,0076;−0,0117;0,0705;0,0005;0,0000;0,0002;
27,028029;−0,0105;0,0064;1,0075;−0,0076;−0,0117;0,0705;0,0005;0,0000;0,0002;
27,029207;−0,0105;0,0064;1,0075;−0,0076;−0,0117;0,0705;−0,0007;−0,0006;0,0002;
27,029865;−0,0105;0,0064;1,0075;0,0020;−0,0023;0,0681;−0,0007;−0,0006;0,0002;
27,097658;−0,0125;0,0056;1,0083;0,0020;−0,0023;0,0681;−0,0007;−0,0006;0,0002;
27,099353;−0,0125;0,0056;1,0083;0,0020;−0,0023;0,0681;0,0011;0,0012;0,0002;
27,100308;−0,0125;0,0056;1,0083;−0,0172;−0,0094;0,0753;0,0011;0,0012;0,0002;
27,148433;−0,0103;0,0071;1,0090;−0,0172;−0,0094;0,0753;0,0011;0,0012;0,0002;
27,149777;−0,0103;0,0071;1,0090;−0,0172;−0,0094;0,0753;−0,0001;−0,0006;0,0008;
27,150593;−0,0103;0,0071;1,0090;0,0045;0,0047;0,0825;−0,0001;−0,0006;0,0008;
27,209790;−0,0103;0,0068;1,0075;0,0045;0,0047;0,0825;−0,0001;−0,0006;0,0008;
27,211241;−0,0103;0,0068;1,0075;0,0045;0,0047;0,0825;0,0005;0,0000;0,0002;
27,211898;−0,0103;0,0068;1,0075;0,0045;0,0021;0,0681;0,0005;0,0000;0,0002;
27,269664;−0,0095;0,0081;1,0083;0,0045;0,0021;0,0681;0,0005;0,0000;0,0002;
27,271208;−0,0095;0,0081;1,0083;0,0045;0,0021;0,0681;0,0005;0,0006;0,0008;
27,271928;−0,0095;0,0081;1,0083;0,0118;0,0140;0,0753;0,0005;0,0006;0,0008;
27,338727;−0,0115;0,0061;1,0073;0,0118;0,0140;0,0753;0,0005;0,0006;0,0008;
27,340082;−0,0115;0,0061;1,0073;0,0118;0,0140;0,0753;0,0005;0,0006;0,0002;
27,340925;−0,0115;0,0061;1,0073;−0,0073;−0,0051;0,0657;0,0005;0,0006;0,0002;
27,390635;−0,0090;0,0066;1,0051;−0,0073;−0,0051;0,0657;0,0005;0,0006;0,0002;
27,391966;−0,0090;0,0066;1,0051;−0,0073;−0,0051;0,0657;0,0005;0,0006;−0,0005;
27,392664;−0,0090;0,0066;1,0051;0,0164;−0,0002;0,0442;0,0005;0,0006;−0,0005;
27,453498;−0,0112;0,0061;1,0066;0,0164;−0,0002;0,0442;0,0005;0,0006;−0,0005;
27,454844;−0,0112;0,0061;1,0066;0,0164;−0,0002;0,0442;−0,0019;−0,0012;0,0002;
27,455574;−0,0112;0,0061;1,0066;−0,0051;−0,0051;0,0585;−0,0019;−0,0012;0,0002;
27,510147;−0,0105;0,0064;1,0066;−0,0051;−0,0051;0,0585;−0,0019;−0,0012;0,0002;
27,511447;−0,0105;0,0064;1,0066;−0,0051;−0,0051;0,0585;−0,0007;−0,0006;0,0002;
27,512137;−0,0105;0,0064;1,0066;0,0019;−0,0028;0,0585;−0,0007;−0,0006;0,0002;
27,580448;−0,0120;0,0054;1,0088;0,0019;−0,0028;0,0585;−0,0007;−0,0006;0,0002;
27,581788;−0,0120;0,0054;1,0088;0,0019;−0,0028;0,0585;−0,0013;−0,0006;−0,0005;
27,582589;−0,0120;0,0054;1,0088;−0,0124;−0,0124;0,0801;−0,0013;−0,0006;−0,0005;
27,628925;−0,0107;0,0068;1,0075;−0,0124;−0,0124;0,0801;−0,0013;−0,0006;−0,0005;
27,630974;−0,0107;0,0068;1,0075;−0,0124;−0,0124;0,0801;−0,0001;0,0000;−0,0005;
27,632196;−0,0107;0,0068;1,0075;−0,0004;0,0018;0,0681;−0,0001;0,0000;−0,0005;
27,698261;−0,0107;0,0073;1,0071;−0,0004;0,0018;0,0681;−0,0001;0,0000;−0,0005;
27,699466;−0,0107;0,0073;1,0071;−0,0004;0,0018;0,0681;−0,0007;−0,0006;−0,0011;
27,700165;−0,0107;0,0073;1,0071;−0,0005;0,0066;0,0633;−0,0007;−0,0006;−0,0011;
27,747841;−0,0105;0,0068;1,0071;−0,0005;0,0066;0,0633;−0,0007;−0,0006;−0,0011;
27,749044;−0,0105;0,0068;1,0071;−0,0005;0,0066;0,0633;−0,0001;0,0000;−0,0005;
27,749747;−0,0105;0,0068;1,0071;0,0019;0,0020;0,0633;−0,0001;0,0000;−0,0005;
27,812983;−0,0110;0,0066;1,0093;0,0019;0,0020;0,0633;−0,0001;0,0000;−0,0005;
27,814406;−0,0110;0,0066;1,0093;0,0019;0,0020;0,0633;−0,0013;−0,0012;0,0008;
27,815146;−0,0110;0,0066;1,0093;−0,0030;−0,0001;0,0849;−0,0013;−0,0012;0,0008;
27,870288;−0,0117;0,0073;1,0066;−0,0030;−0,0001;0,0849;−0,0013;−0,0012;0,0008;
27,871610;−0,0117;0,0073;1,0066;−0,0030;−0,0001;0,0849;−0,0001;0,0000;−0,0005;
27,872302;−0,0117;0,0073;1,0066;−0,0103;0,0069;0,0585;−0,0001;0,0000;−0,0005;
27,937226;−0,0117;0,0068;1,0061;−0,0103;0,0069;0,0585;−0,0001;0,0000;−0,0005;
27,938654;−0,0117;0,0068;1,0061;−0,0103;0,0069;0,0585;−0,0007;0,0000;−0,0011;
27,939356;−0,0117;0,0068;1,0061;−0,0102;0,0022;0,0537;−0,0007;0,0000;−0,0011;
27,989699;−0,0122;0,0051;1,0073;−0,0102;0,0022;0,0537;−0,0007;0,0000;−0,0011;
27,991023;−0,0122;0,0051;1,0073;−0,0102;0,0022;0,0537;0,0005;0,0000;−0,0005;
27,991750;−0,0122;0,0051;1,0073;−0,0147;−0,0145;0,0657;0,0005;0,0000;−0,0005;
28,054229;−0,0105;0,0056;1,0078;−0,0147;−0,0145;0,0657;0,0005;0,0000;−0,0005;
28,055494;−0,0105;0,0056;1,0078;−0,0147;−0,0145;0,0657;−0,0001;0,0006;0,0002;
28,056218;−0,0105;0,0056;1,0078;0,0021;−0,0097;0,0705;−0,0001;0,0006;0,0002;
28,110637;−0,0112;0,0066;1,0075;0,0021;−0,0097;0,0705;−0,0001;0,0006;0,0002;
28,112498;−0,0112;0,0066;1,0075;0,0021;−0,0097;0,0705;−0,0007;−0,0006;0,0008;
28,113221;−0,0112;0,0066;1,0075;−0,0052;−0,0001;0,0681;−0,0007;−0,0006;0,0008;
28,179485;−0,0100;0,0064;1,0093;−0,0052;−0,0001;0,0681;−0,0007;−0,0006;0,0008;
28,180830;−0,0100;0,0064;1,0093;−0,0052;−0,0001;0,0681;0,0005;0,0000;0,0002;
28,181505;−0,0100;0,0064;1,0093;0,0067;−0,0024;0,0849;0,0005;0,0000;0,0002;
28,230683;−0,0112;0,0068;1,0075;0,0067;−0,0024;0,0849;0,0005;0,0000;0,0002;
28,231956;−0,0112;0,0068;1,0075;0,0067;−0,0024;0,0849;−0,0007;0,0000;0,0002;
28,232668;−0,0112;0,0068;1,0075;−0,0052;0,0025;0,0681;−0,0007;0,0000;0,0002;
28,297209;−0,0105;0,0073;1,0071;−0,0052;0,0025;0,0681;−0,0007;0,0000;0,0002;
28,298840;−0,0105;0,0073;1,0071;−0,0052;0,0025;0,0681;−0,0007;−0,0006;0,0008;
28,299460;−0,0105;0,0073;1,0071;0,0019;0,0076;0,0633;−0,0007;−0,0006;0,0008;
28,349061;−0,0107;0,0071;1,0093;0,0019;0,0076;0,0633;−0,0007;−0,0006;0,0008;
28,350395;−0,0107;0,0071;1,0093;0,0019;0,0076;0,0633;−0,0001;0,0000;−0,0005;
28,351093;−0,0107;0,0071;1,0093;−0,0007;0,0050;0,0849;−0,0001;0,0000;−0,0005;
28,413978;−0,0125;0,0073;1,0085;−0,0007;0,0050;0,0849;−0,0001;0,0000;−0,0005;
28,415296;−0,0125;0,0073;1,0085;−0,0007;0,0050;0,0849;0,0005;0,0000;0,0002;
28,415988;−0,0125;0,0073;1,0085;−0,0175;0,0073;0,0777;0,0005;0,0000;0,0002;
28,468334;−0,0139;0,0051;1,0061;−0,0175;0,0073;0,0777;0,0005;0,0000;0,0002;
28,469628;−0,0139;0,0051;1,0061;−0,0175;0,0073;0,0777;0,0005;−0,0006;−0,0005;
28,470383;−0,0139;0,0051;1,0061;−0,0316;−0,0142;0,0537;0,0005;−0,0006;−0,0005;
28,538699;−0,0098;0,0046;1,0068;−0,0316;−0,0142;0,0537;0,0005;−0,0006;−0,0005;
28,540001;−0,0098;0,0046;1,0068;−0,0316;−0,0142;0,0537;−0,0001;0,0000;−0,0005;
28,540714;−0,0098;0,0046;1,0068;0,0091;−0,0192;0,0609;−0,0001;0,0000;−0,0005;
28,589763;−0,0107;0,0049;1,0068;0,0091;−0,0192;0,0609;−0,0001;0,0000;−0,0005;
28,590971;−0,0107;0,0049;1,0068;0,0091;−0,0192;0,0609;−0,0013;0,0006;0,0008;
28,591646;−0,0107;0,0049;1,0068;−0,0005;−0,0168;0,0609;−0,0013;0,0006;0,0008;
28,653044;−0,0127;0,0066;1,0083;−0,0005;−0,0168;0,0609;−0,0013;0,0006;0,0008;
28,654288;−0,0127;0,0066;1,0083;−0,0005;−0,0168;0,0609;0,0018;0,0000;0,0008;
28,654992;−0,0127;0,0066;1,0083;−0,0197;0,0002;0,0753;0,0018;0,0000;0,0008;
28,710095;−0,0105;0,0054;1,0075;−0,0197;0,0002;0,0753;0,0018;0,0000;0,0008;
28,711420;−0,0105;0,0054;1,0075;−0,0197;0,0002;0,0753;−0,0007;0,0006;0,0008;
28,712159;−0,0105;0,0054;1,0075;0,0018;−0,0121;0,0681;−0,0007;0,0006;0,0008;
28,777716;−0,0112;0,0056;1,0071;0,0018;−0,0121;0,0681;−0,0007;0,0006;0,0008;
28,779366;−0,0112;0,0056;1,0071;0,0018;−0,0121;0,0681;0,0005;0,0000;−0,0005;
28,780107;−0,0112;0,0056;1,0071;−0,0052;−0,0094;0,0633;0,0005;0,0000;−0,0005;
28,830861;−0,0100;0,0051;1,0058;−0,0052;−0,0094;0,0633;0,0005;0,0000;−0,0005;
28,832253;−0,0100;0,0051;1,0058;−0,0052;−0,0094;0,0633;−0,0002;0,0006;0,0008;
28,832937;−0,0100;0,0051;1,0058;0,0068;−0,0145;0,0514;−0,0002;0,0006;0,0008;
28,896935;−0,0107;0,0078;1,0073;0,0068;−0,0145;0,0514;−0,0002;0,0006;0,0008;
28,898340;−0,0107;0,0078;1,0073;0,0068;−0,0145;0,0514;0,0005;0,0000;0,0014;
28,899050;−0,0107;0,0078;1,0073;−0,0003;0,0116;0,0657;0,0005;0,0000;0,0014;
28,951898;−0,0098;0,0054;1,0068;−0,0003;0,0116;0,0657;0,0005;0,0000;0,0014;
28,953209;−0,0098;0,0054;1,0068;−0,0003;0,0116;0,0657;−0,0002;0,0000;−0,0005;
28,953905;−0,0098;0,0054;1,0068;0,0093;−0,0122;0,0609;−0,0002;0,0000;−0,0005;
29,012957;−0,0107;0,0071;1,0058;0,0093;−0,0122;0,0609;−0,0002;0,0000;−0,0005;
29,014317;−0,0107;0,0071;1,0058;0,0093;−0,0122;0,0609;−0,0008;0,0000;0,0002;
29,015026;−0,0107;0,0071;1,0058;−0,0005;0,0046;0,0514;−0,0008;0,0000;0,0002;
29,070397;−0,0107;0,0056;1,0075;−0,0005;0,0046;0,0514;−0,0008;0,0000;0,0002;
29,071647;−0,0107;0,0056;1,0075;−0,0005;0,0046;0,0514;−0,0008;0,0006;−0,0017;
29,072314;−0,0107;0,0056;1,0075;−0,0005;−0,0099;0,0681;−0,0008;0,0006;−0,0017;
29,137769;−0,0098;0,0064;1,0085;−0,0005;−0,0099;0,0681;−0,0008;0,0006;−0,0017;
29,139225;−0,0098;0,0064;1,0085;−0,0005;−0,0099;0,0681;−0,0002;−0,0006;0,0008;
29,139920;−0,0098;0,0064;1,0085;0,0091;−0,0028;0,0777;−0,0002;−0,0006;0,0008;
29,188977;−0,0115;0,0086;1,0078;0,0091;−0,0028;0,0777;−0,0002;−0,0006;0,0008;
29,190273;−0,0115;0,0086;1,0078;0,0091;−0,0028;0,0777;0,0017;0,0006;−0,0005;
29,190972;−0,0115;0,0086;1,0078;−0,0076;0,0188;0,0705;0,0017;0,0006;−0,0005;
29,254503;−0,0093;0,0064;1,0073;−0,0076;0,0188;0,0705;0,0017;0,0006;−0,0005;
29,255794;−0,0093;0,0064;1,0073;−0,0076;0,0188;0,0705;−0,0008;0,0000;0,0002;
29,256513;−0,0093;0,0064;1,0073;0,0141;−0,0030;0,0657;−0,0008;0,0000;0,0002;
29,309850;−0,0122;0,0076;1,0066;0,0141;−0,0030;0,0657;−0,0008;0,0000;0,0002;
29,311294;−0,0122;0,0076;1,0066;0,0141;−0,0030;0,0657;−0,0008;0,0000;0,0002;
29,311981;−0,0122;0,0076;1,0066;−0,0147;0,0093;0,0585;−0,0008;0,0000;0,0002;
29,380705;−0,0120;0,0064;1,0073;−0,0147;0,0093;0,0585;−0,0008;0,0000;0,0002;
29,382140;−0,0120;0,0064;1,0073;−0,0147;0,0093;0,0585;0,0005;0,0006;0,0008;
29,382970;−0,0120;0,0064;1,0073;−0,0124;−0,0022;0,0657;0,0005;0,0006;0,0008;
29,429735;−0,0107;0,0049;1,0083;−0,0124;−0,0022;0,0657;0,0005;0,0006;0,0008;
29,431063;−0,0107;0,0049;1,0083;−0,0124;−0,0022;0,0657;0,0005;−0,0006;−0,0005;
29,431893;−0,0107;0,0049;1,0083;−0,0003;−0,0164;0,0753;0,0005;−0,0006;−0,0005;
29,497361;−0,0100;0,0054;1,0071;−0,0003;−0,0164;0,0753;0,0005;−0,0006;−0,0005;
29,499042;−0,0100;0,0054;1,0071;−0,0003;−0,0164;0,0753;0,0005;0,0000;0,0008;
29,499778;−0,0100;0,0054;1,0071;0,0068;−0,0118;0,0633;0,0005;0,0000;0,0008;
29,549386;−0,0112;0,0071;1,0063;0,0068;−0,0118;0,0633;0,0005;0,0000;0,0008;
29,550661;−0,0112;0,0071;1,0063;0,0068;−0,0118;0,0633;−0,0002;0,0000;0,0002;
29,551315;−0,0112;0,0071;1,0063;−0,0052;0,0047;0,0561;−0,0002;0,0000;0,0002;
29,613552;−0,0100;0,0044;1,0083;−0,0052;0,0047;0,0561;−0,0002;0,0000;0,0002;
29,614919;−0,0100;0,0044;1,0083;−0,0052;0,0047;0,0561;−0,0002;0,0000;−0,0011;
29,615643;−0,0100;0,0044;1,0083;0,0068;−0,0216;0,0753;−0,0002;0,0000;−0,0011;
29,674355;−0,0103;0,0051;1,0075;0,0068;−0,0216;0,0753;−0,0002;0,0000;−0,0011;
29,675709;−0,0103;0,0051;1,0075;0,0068;−0,0216;0,0753;0,0011;0,0000;−0,0005;
29,676388;−0,0103;0,0051;1,0075;0,0044;−0,0144;0,0681;0,0011;0,0000;−0,0005;
29,740781;−0,0112;0,0049;1,0063;0,0044;−0,0144;0,0681;0,0011;0,0000;−0,0005;
29,742207;−0,0112;0,0049;1,0063;0,0044;−0,0144;0,0681;0,0005;0,0000;−0,0005;
29,742949;−0,0112;0,0049;1,0063;−0,0051;−0,0169;0,0561;0,0005;0,0000;−0,0005;
29,788883;−0,0103;0,0086;1,0080;−0,0051;−0,0169;0,0561;0,0005;0,0000;−0,0005;
29,790222;−0,0103;0,0086;1,0080;−0,0051;−0,0169;0,0561;0,0017;0,0000;0,0008;
29,790955;−0,0103;0,0086;1,0080;0,0043;0,0189;0,0729;0,0017;0,0000;0,0008;
29,853994;−0,0095;0,0088;1,0090;0,0043;0,0189;0,0729;0,0017;0,0000;0,0008;
29,855418;−0,0095;0,0088;1,0090;0,0043;0,0189;0,0729;0,0005;0,0000;0,0002;
29,856113;−0,0095;0,0088;1,0090;0,0115;0,0213;0,0825;0,0005;0,0000;0,0002;
29,909625;−0,0110;0,0073;1,0068;0,0115;0,0213;0,0825;0,0005;0,0000;0,0002;
29,911052;−0,0110;0,0073;1,0068;0,0115;0,0213;0,0825;0,0005;0,0006;−0,0005;
29,911760;−0,0110;0,0073;1,0068;−0,0027;0,0068;0,0609;0,0005;0,0006;−0,0005;
29,980083;−0,0100;0,0064;1,0080;−0,0027;0,0068;0,0609;0,0005;0,0006;−0,0005;
29,981519;−0,0100;0,0064;1,0080;−0,0027;0,0068;0,0609;0,0005;0,0000;−0,0005;
29,982300;−0,0100;0,0064;1,0080;0,0070;−0,0029;0,0729;0,0005;0,0000;−0,0005;
30,027979;−0,0110;0,0064;1,0068;0,0070;−0,0029;0,0729;0,0005;0,0000;−0,0005;
30,029238;−0,0110;0,0064;1,0068;0,0070;−0,0029;0,0729;−0,0002;−0,0006;−0,0011;
30,029960;−0,0110;0,0064;1,0068;−0,0027;−0,0032;0,0609;−0,0002;−0,0006;−0,0011;
30,098903;−0,0098;0,0073;1,0071;−0,0027;−0,0032;0,0609;−0,0002;−0,0006;−0,0011;
30,100110;−0,0098;0,0073;1,0071;−0,0027;−0,0032;0,0609;−0,0002;0,0000;−0,0005;
30,101313;−0,0098;0,0073;1,0071;0,0092;0,0062;0,0633;−0,0002;0,0000;−0,0005;
30,148819;−0,0105;0,0078;1,0066;0,0092;0,0062;0,0633;−0,0002;0,0000;−0,0005;
30,150205;−0,0105;0,0078;1,0066;0,0092;0,0062;0,0633;−0,0002;0,0006;0,0002;
30,150911;−0,0105;0,0078;1,0066;0,0022;0,0110;0,0585;−0,0002;0,0006;0,0002;
30,211392;−0,0103;0,0071;1,0073;0,0022;0,0110;0,0585;−0,0002;0,0006;0,0002;
30,212778;−0,0103;0,0071;1,0073;0,0022;0,0110;0,0585;−0,0008;0,0000;0,0002;
30,213465;−0,0103;0,0071;1,0073;0,0047;0,0042;0,0657;−0,0008;0,0000;0,0002;
30,269844;−0,0103;0,0059;1,0066;0,0047;0,0042;0,0657;−0,0008;0,0000;0,0002;
30,271193;−0,0103;0,0059;1,0066;0,0047;0,0042;0,0657;0,0005;0,0000;−0,0011;
30,271847;−0,0103;0,0059;1,0066;0,0049;−0,0078;0,0585;0,0005;0,0000;−0,0011;
30,336507;−0,0115;0,0086;1,0071;0,0049;−0,0078;0,0585;0,0005;0,0000;−0,0011;
30,339064;−0,0115;0,0086;1,0071;0,0049;−0,0078;0,0585;−0,0002;0,0006;0,0002;
30,339754;−0,0115;0,0086;1,0071;−0,0070;0,0186;0,0633;−0,0002;0,0006;0,0002;
30,389847;−0,0100;0,0076;1,0085;−0,0070;0,0186;0,0633;−0,0002;0,0006;0,0002;
30,391412;−0,0100;0,0076;1,0085;−0,0070;0,0186;0,0633;−0,0002;0,0000;−0,0005;
30,392123;−0,0100;0,0076;1,0085;0,0072;0,0094;0,0777;−0,0002;0,0000;−0,0005;
30,452315;−0,0117;0,0054;1,0078;0,0072;0,0094;0,0777;−0,0002;0,0000;−0,0005;
30,453647;−0,0117;0,0054;1,0078;0,0072;0,0094;0,0777;−0,0008;−0,0006;−0,0005;
30,454462;−0,0117;0,0054;1,0078;−0,0094;−0,0122;0,0705;−0,0008;−0,0006;−0,0005;
30,510604;−0,0103;0,0071;1,0083;−0,0094;−0,0122;0,0705;−0,0008;−0,0006;−0,0005;
30,511893;−0,0103;0,0071;1,0083;−0,0094;−0,0122;0,0705;−0,0008;0,0000;0,0008;
30,512595;−0,0103;0,0071;1,0083;0,0049;0,0044;0,0753;−0,0008;0,0000;0,0008;
30,580377;−0,0105;0,0076;1,0071;0,0049;0,0044;0,0753;−0,0008;0,0000;0,0008;
30,581718;−0,0105;0,0076;1,0071;0,0049;0,0044;0,0753;0,0005;0,0012;0,0002;
30,582618;−0,0105;0,0076;1,0071;0,0027;0,0091;0,0633;0,0005;0,0012;0,0002;
30,627968;−0,0105;0,0056;1,0056;0,0027;0,0091;0,0633;0,0005;0,0012;0,0002;
30,629301;−0,0105;0,0056;1,0056;0,0027;0,0091;0,0633;−0,0008;0,0000;0,0002;
30,629976;−0,0105;0,0056;1,0056;0,0028;−0,0099;0,0490;−0,0008;0,0000;0,0002;
30,697884;−0,0125;0,0064;1,0085;0,0028;−0,0099;0,0490;−0,0008;0,0000;0,0002;
30,699321;−0,0125;0,0064;1,0085;0,0028;−0,0099;0,0490;0,0011;0,0000;0,0008;
30,700110;−0,0125;0,0064;1,0085;−0,0163;−0,0026;0,0777;0,0011;0,0000;0,0008;
30,749067;−0,0100;0,0061;1,0061;−0,0163;−0,0026;0,0777;0,0011;0,0000;0,0008;
30,750359;−0,0100;0,0061;1,0061;−0,0163;−0,0026;0,0777;0,0005;0,0006;0,0008;
30,751020;−0,0100;0,0061;1,0061;0,0077;−0,0051;0,0538;0,0005;0,0006;0,0008;
30,811511;−0,0107;0,0064;1,0071;0,0077;−0,0051;0,0538;0,0005;0,0006;0,0008;
30,812929;−0,0107;0,0064;1,0071;0,0077;−0,0051;0,0538;0,0005;0,0000;−0,0005;
30,813612;−0,0107;0,0064;1,0071;0,0007;−0,0027;0,0633;0,0005;0,0000;−0,0005;
30,870373;−0,0112;0,0066;1,0073;0,0007;−0,0027;0,0633;0,0005;0,0000;−0,0005;
30,871700;−0,0112;0,0066;1,0073;0,0007;−0,0027;0,0633;−0,0002;0,0000;0,0002;
30,872380;−0,0112;0,0066;1,0073;−0,0040;−0,0004;0,0657;−0,0002;0,0000;0,0002;
30,939465;−0,0107;0,0068;1,0063;−0,0040;−0,0004;0,0657;−0,0002;0,0000;0,0002;
30,940777;−0,0107;0,0068;1,0063;−0,0040;−0,0004;0,0657;0,0005;−0,0006;0,0002;
30,941501;−0,0107;0,0068;1,0063;0,0007;0,0021;0,0562;0,0005;−0,0006;0,0002;
30,989822;−0,0100;0,0064;1,0063;0,0007;0,0021;0,0562;0,0005;−0,0006;0,0002;
30,991183;−0,0100;0,0064;1,0063;0,0007;0,0021;0,0562;0,0005;−0,0006;−0,0005;
30,991890;−0,0100;0,0064;1,0063;0,0077;−0,0027;0,0562;0,0005;−0,0006;−0,0005;
31,054799;−0,0093;0,0081;1,0075;0,0077;−0,0027;0,0562;0,0005;−0,0006;−0,0005;
31,056093;−0,0093;0,0081;1,0075;0,0077;−0,0027;0,0562;−0,0002;−0,0006;−0,0005;
31,056816;−0,0093;0,0081;1,0075;0,0150;0,0137;0,0681;−0,0002;−0,0006;−0,0005;
31,109257;−0,0117;0,0073;1,0066;0,0150;0,0137;0,0681;−0,0002;−0,0006;−0,0005;
31,110918;−0,0117;0,0073;1,0066;0,0150;0,0137;0,0681;0,0005;0,0000;−0,0005;
